time,seconds_elapsed,z,y,x
1683691142977269000,0.03326904296875,0.20586042624115944,0.43731136694326994,0.2601515500076115
1683691142987239000,0.043239013671875,0.04265197776854038,0.5374748918294906,0.3507973049640655
1683691142997210000,0.053210205078125,0.17229191863834856,0.4016705831110477,0.338084538385272
1683691143007181000,0.06318115234375,0.4536772492021322,0.30542876171320676,0.3898335764534771
1683691143017152000,0.073152099609375,0.5609235719561576,0.29713439609855413,0.4175415214598179
1683691143027122000,0.083121826171875,0.40985973478555676,0.25220205230787396,0.24568463323786854
1683691143037092900,0.0930927734375,0.36459962034523485,0.18577245471924542,-0.009681289928406476
1683691143047064000,0.10306396484375,0.488241782104969,0.19271920511722562,-0.15599807870239019
1683691143057035000,0.113034912109375,0.6921709480226039,0.2047808143109083,-0.04568213924467563
1683691143067005000,0.1230048828125,0.8930383882820606,0.25471622708588837,-0.1273366323634982
1683691143076976000,0.13297607421875,0.8627817817062139,0.4016840271145105,-0.5812935752898455
1683691143086947000,0.142947021484375,0.6975444577544927,0.5714167627893388,-1.149162728600204
1683691143096917800,0.152917724609375,0.38791502948105333,0.8068208250313996,-1.2287132351770997
1683691143106888000,0.162887939453125,-0.024659809482097624,0.7992647105634212,-0.7635463314503431
1683691143116859000,0.17285888671875,-0.18903613269031047,0.6653488459400833,-0.3156947196617722
1683691143126829800,0.182829833984375,-0.22507950597405432,0.8839759609043598,0.08908055146634578
1683691143136801000,0.192801025390625,-0.518548073041439,1.3848933924481273,-0.025411796893179416
1683691143146771000,0.20277099609375,-0.23951368951797483,0.8544295484244823,-0.2611839617952704
1683691143156742000,0.212741943359375,0.6076274554640054,0.1333697750478983,-0.22033085014224052
1683691143166713000,0.222713134765625,0.7326742233246565,-0.29030425781756636,-0.07980477359890938
1683691143176683800,0.232683837890625,0.46026247281134125,-0.4242985945045948,-0.5967354745715856
1683691143186654000,0.242654052734375,0.728846189469099,0.41526919261366124,-0.9059031305521726
1683691143196625000,0.252625,0.6931278103560209,1.3533436773218215,0.0547004352197051
1683691143206595800,0.262595947265625,1.2772574858546257,1.7733847605124116,1.0458715732127428
1683691143216567000,0.272567138671875,1.7037895384997128,2.001302997043729,1.5360527989476918
1683691143226537000,0.282536865234375,1.011864674192667,1.6952902979627251,1.5964403398931026
1683691143236508000,0.2925078125,0.3183171771198511,1.0460239872954786,1.341938924601674
1683691143246479000,0.30247900390625,0.43054304185211656,1.017606724976003,1.0962997379407287
1683691143256450000,0.312449951171875,-0.27820494696199893,0.814055598590523,0.4070280184909701
1683691143266420000,0.322419921875,-1.0240098700165747,1.746436255571246,1.2754907684430479
1683691143276391000,0.332390869140625,-0.7488619725376368,2.0422943481236695,1.9931328423306345
1683691143286361900,0.34236181640625,0.13444821793437003,1.7029589328944683,2.0430010350883006
1683691143296332800,0.352332763671875,1.101246838954091,1.1923843229502438,2.728644919429719
1683691143306303000,0.362302978515625,0.8443839552283287,-0.34328254541978237,3.245723504440486
1683691143316274000,0.37227392578125,0.07802548896670342,0.6237963538460433,2.225124904172122
1683691143326245000,0.3822451171875,0.12862287278175352,2.5270634856820107,2.630725812469423
1683691143336216000,0.392216064453125,0.5738116951018571,1.912830348342657,3.288613090357184
1683691143346186000,0.40218603515625,0.7948685214310884,1.5518324057511985,3.415639049336314
1683691143356157200,0.4121572265625,1.091731407111883,2.077113878700882,3.572092178329825
1683691143366127900,0.4221279296875,1.4056237535268068,2.197845852102339,3.5588089183866978
1683691143376098800,0.432098876953125,1.354462306088209,2.5618162346333264,3.4651761104434726
1683691143386069000,0.442069091796875,1.0232242725968361,3.194237355092168,2.5333710613936185
1683691143396040000,0.4520400390625,0.502982839640975,2.2513285820953546,2.4476643702745435
1683691143406011000,0.462010986328125,-0.2052653829574585,2.1406093225337566,3.1484295436412095
1683691143415982000,0.471982177734375,-0.4419581698358059,1.5940440924063324,3.224752320343256
1683691143425952000,0.481951904296875,-1.6226216598540544,1.6458756941914559,2.05040634290874
1683691143435923000,0.4919228515625,-1.9098025249540804,1.5598416708141565,0.4548012847959995
1683691143445894000,0.501893798828125,-1.5267875424742698,1.3496046369239687,-1.0563397757351398
1683691143455864800,0.51186474609375,-1.742784747326374,0.8728206529006362,-1.7203057890146969
1683691143465834800,0.521834716796875,-1.79437815644145,0.05784370168149471,-1.8705851978093384
1683691143475806000,0.531805908203125,-1.9551655152469871,-0.6967343104153871,-2.304185289144516
1683691143485777000,0.54177685546875,-2.3929297405242917,-1.243318975895643,-2.590709736162424
1683691143495748000,0.551748046875,-3.20747443780601,-1.6971458627015352,-2.664950445893407
1683691143505718000,0.561718017578125,-3.257949072024226,-2.128391061473638,-3.717743342801928
1683691143515689000,0.57168896484375,-3.32109088011384,-2.254659918475151,-4.317447019529342
1683691143525660200,0.58166015625,-3.126009037518501,-2.5563094539105893,-3.618132044970989
1683691143535630800,0.591630859375,-3.670696929466724,-3.039963031442463,-3.4946284148991107
1683691143545600800,0.601600830078125,-3.970655443075299,-3.271261558061838,-3.2943525107920166
1683691143555572000,0.611572021484375,-3.6471594020128246,-3.5652404127389192,-2.1988246340066193
1683691143565543000,0.62154296875,-6.41353199455142,-3.430046344873309,-1.9652210453152656
1683691143575513900,0.631513916015625,-5.262234299749136,-3.8848458761036393,-2.3291122251302
1683691143585484000,0.641484130859375,-3.7532688296914096,-3.057619684164226,-2.3550164817154404
1683691143595455000,0.651455078125,-3.5677614556491375,-2.402122224022448,-1.5099159026503561
1683691143605426000,0.661426025390625,-4.441135943040251,-2.4385072503507135,-0.9293465499818324
1683691143615396900,0.67139697265625,-3.97289123930335,-2.338380404213071,-0.9080591395422816
1683691143625367000,0.681366943359375,-3.166623371979594,-1.97354025311023,-1.1013090905353426
1683691143635338000,0.691337890625,-2.245935344749689,-1.4395882747098803,-1.5051219463720917
1683691143645309000,0.701308837890625,-1.3752718698829411,-0.9154360980510711,-0.6669470749169588
1683691143655279900,0.71127978515625,-0.7855477353781462,-1.005031321041286,0.3700391810506582
1683691143665250000,0.72125,-0.4383066615909338,-1.0367375419035554,-0.3216933755546808
1683691143675221000,0.731220947265625,0.30994974626898764,-0.21399755546748636,0.7907233844503759
1683691143685192000,0.74119189453125,0.6361942092567682,-0.1848299131721258,1.0617940956182776
1683691143695163100,0.7511630859375,0.9970803620368242,-0.3236573691040277,0.9006111616238951
1683691143705133000,0.761133056640625,1.547276203751564,0.18014380118250845,0.75548606685251
1683691143715103700,0.771103759765625,1.4364578677296638,0.5543552994817496,0.784143713799119
1683691143725075000,0.781074951171875,1.5496294888794422,0.35577217076718803,0.5819470707625151
1683691143735046000,0.7910458984375,1.8854922595620154,0.17470000269338487,0.4259109981372952
1683691143745015800,0.801015869140625,1.8125328218132257,0.17674860578626395,0.23167992715239524
1683691143754987000,0.810987060546875,1.7617197494208812,0.11714373965114354,0.189501412114501
1683691143764958000,0.8209580078125,1.7385452100604772,-0.08376403261870145,0.08719926776438951
1683691143774929200,0.83092919921875,1.5853940452218054,-0.19675357519984243,0.17444237467050552
1683691143784899000,0.840899169921875,1.4499047938019036,-0.1983572110041976,0.3094438425734639
1683691143794870000,0.8508701171875,1.460991420483589,-0.10045622422248124,0.0850455968618393
1683691143804841000,0.860841064453125,1.214495616993308,0.059809594926983116,-0.048615854609012604
1683691143814812000,0.87081201171875,1.1565566382437944,0.08806991311907768,0.11359627630263566
1683691143824782800,0.880782958984375,0.3358715385109186,-0.22835019820779562,0.10653525187522173
1683691143834753000,0.8907529296875,0.11811726085841655,-0.33926775682047006,0.06223667594343423
1683691143844724000,0.900723876953125,-0.17630232332348822,-0.2836816248074174,-0.30581425389945505
1683691143854695000,0.91069482421875,-0.7091232518672943,-0.32331454701572654,-0.05649111802875995
1683691143864665000,0.9206650390625,-0.6704758335649966,-0.21854075185507535,-0.014168810606002807
1683691143874636000,0.930635986328125,-1.0375415517628193,0.12694149556607007,-0.23573943167626857
1683691143884606700,0.940606689453125,-0.7720791819959878,0.2971760432831943,-0.39188744024336336
1683691143894578000,0.950577880859375,-0.7424176187038422,-0.05167378087490797,-0.6838312819615006
1683691143904547300,0.96054736328125,-0.9579290858656168,-0.2178073230139911,-0.626570933125913
1683691143914518300,0.970518310546875,-0.6994160968452692,-0.1872771601937711,-0.14542583128362893
1683691143924489200,0.9804892578125,-0.4782803600609302,-0.4085696949750185,0.3152709412917495
1683691143934460400,0.99046044921875,-0.37387130655944345,-0.5834644895881415,0.5217252417728304
1683691143944430300,1.000430419921875,-0.39030455496609207,-0.42545039488822217,0.5173258377701043
1683691143954401300,1.0104013671875,-0.36784605492055417,-0.188557701523602,0.37496786962449546
1683691143964372500,1.02037255859375,-0.40394729587137695,0.02229980235248804,0.36299510775804517
1683691143974343400,1.030343505859375,-0.3657879533469677,0.1301623573087156,0.27118074741363524
1683691143984313300,1.040313232421875,-0.1679115115970373,0.1686480091780424,0.12298077524155378
1683691143994284300,1.0502841796875,-0.19077099365890024,0.16339607999920844,0.25128888298571106
1683691144004255200,1.060255126953125,-0.04049392295181751,-0.032130729884654284,0.371936246843636
1683691144014226400,1.070226318359375,0.04379237997531891,-0.15220862329155205,0.40850393626242876
1683691144024196400,1.0801962890625,0.0818248812496662,-0.15325564812645315,0.3966951327860355
1683691144034167300,1.090167236328125,0.13506255044043064,-0.02943900658264756,0.5210580100357532
1683691144044138500,1.100138427734375,0.1456909119606018,-0.06688362496644258,0.09587152678072453
1683691144054109400,1.110109375,0.23568448661863803,-0.09162380620837211,0.11028291397094726
1683691144064080100,1.120080078125,0.2518845107913017,0.06514817947596312,0.48058717569857834
1683691144074050300,1.13005029296875,0.189208566647768,-0.07628288308307528,0.13452069864869118
1683691144084021200,1.140021240234375,0.2936947770386934,-0.1487194660015404,0.08865706535726785
1683691144093992200,1.1499921875,0.28138006986677644,-0.0663268678665161,0.22143442746996878
1683691144103962400,1.15996240234375,0.32499417066574093,-0.1947524645105004,0.5078106981888413
1683691144113933300,1.169933349609375,0.04913257195949554,-0.39658728849738833,0.8469798169404268
1683691144123904300,1.179904296875,0.11926058567464351,0.018141952020674944,0.5739329833939671
1683691144133875500,1.18987548828125,0.8072112856537104,0.21424802309721708,0.8699737390369177
1683691144143846400,1.199846435546875,0.6891156521052122,0.33203532134890557,0.7358692199736833
1683691144153816300,1.20981640625,0.44335693071782584,0.5881254671365023,0.7992404529049992
1683691144163787300,1.219787353515625,0.37370237973332404,0.7052031558141112,0.8468219960302114
1683691144173758200,1.22975830078125,-0.05534136347174644,0.8586090260662138,0.9784364518433809
1683691144183729400,1.2397294921875,-0.09175240102410316,1.1092543504513799,0.7723258502334356
1683691144193699300,1.24969921875,0.030288170757889747,1.1682676804341374,0.2590004802763462
1683691144203670300,1.259670166015625,1.4141782313823699,1.54842128213346,0.4805909750908613
1683691144213641500,1.269641357421875,1.0404185685038565,1.895006522360444,0.4093319115191698
1683691144223612400,1.2796123046875,-0.6063637191385031,1.3201023558467626,-0.5100871186882258
1683691144233582300,1.289582275390625,-1.0423141729921102,1.0962006614804267,-1.0087754760056733
1683691144243553300,1.29955322265625,-1.4025456612557172,1.2815455384373664,-1.5508943942487239
1683691144253524200,1.309524169921875,-2.1054203741222617,1.4764932332590222,-2.0002537802517413
1683691144263495400,1.319495361328125,-2.227783601987362,1.5750445006430147,-2.2371488117039204
1683691144273465300,1.32946533203125,-1.6003174735873937,1.2343648311980069,-1.8312503817647694
1683691144283436300,1.339436279296875,-0.8701923502236604,0.9124427614539861,-1.4755015918731689
1683691144293407500,1.349407470703125,-0.4563923533797264,1.091655127005279,-1.6953753458976744
1683691144303378400,1.35937841796875,-0.27259587490856646,1.6546733331531285,-2.285641332194209
1683691144313348400,1.369348388671875,-0.7718518029808997,2.064499311799556,-2.7327713517099617
1683691144323319600,1.379319580078125,-0.5460965897023677,2.069538182749599,-2.9340473727703094
1683691144333290200,1.389290283203125,-0.551573559808731,2.599534847652912,-1.6546896997660399
1683691144343261200,1.39926123046875,-0.5831874262124299,3.079538962766528,0.29018530761301514
1683691144353231400,1.4092314453125,0.7583750662922859,2.0219605851471423,0.22841128074526784
1683691144363202300,1.419202392578125,0.29164193616211415,2.1125658619627354,0.6607207477480173
1683691144373173200,1.42917333984375,-0.250181214004755,2.606741418030858,0.4008651119470596
1683691144383144400,1.43914453125,-0.7077677456051111,1.571288070718944,-0.9712257898122072
1683691144393114400,1.4491142578125,-1.1510469349116086,2.1560545828163624,0.13978373374342917
1683691144403085300,1.459085205078125,-1.3907371500402688,1.3837649729400872,1.1978887655854225
1683691144413056300,1.46905615234375,-0.6434492949515581,0.9472592232912779,0.3268909441977739
1683691144423027200,1.479027099609375,-0.08651216228306292,0.8651952725887299,-0.019997662889957427
1683691144432997000,1.4889970703125,-0.6472142004430294,0.565482842695713,-0.29654256768524645
1683691144442968300,1.49896826171875,-2.002062875500321,-0.13146686403602362,1.1791355497986078
1683691144452939300,1.508939208984375,-1.0424912831246853,-1.462655262042582,1.752124822601676
1683691144462910500,1.518910400390625,0.40125615709125995,-2.3141230380520224,1.2364233711630106
1683691144472880400,1.52888037109375,1.4419675710618496,-2.465679334914684,0.7336538820117712
1683691144482851300,1.538851318359375,1.3510060281544922,-2.4475229159772396,0.4241840282142162
1683691144492822500,1.548822509765625,1.34039870942235,-2.7754937643662094,0.14435177231132984
1683691144502793200,1.558793212890625,1.1889736377239226,-2.5744258330985903,-0.30640520552992817
1683691144512763100,1.56876318359375,1.2644447660326956,-2.5258029642269015,-0.819039670613408
1683691144522734300,1.578734375,1.8514169714808464,-2.797432332190871,-1.1099757965937256
1683691144532705300,1.588705322265625,1.9151614216387272,-2.5476678822934624,-1.2211328630506992
1683691144542676200,1.59867626953125,1.9033230998069046,-2.4136525028184055,-1.338460434836149
1683691144552646400,1.608646484375,2.2080583262979983,-2.5164409693807364,-1.434911222809553
1683691144562617300,1.618617431640625,2.222394894686341,-2.69536195077002,-1.4026888691186905
1683691144572588500,1.628588623046875,0.7384405317664146,-2.903693151038885,-2.0585949100613594
1683691144582559200,1.638559326171875,0.4607090475350618,-2.9872517242133614,-1.425869838219881
1683691144592529400,1.648529296875,2.641778829142451,-2.6392472648382186,-0.05029577051997185
1683691144602500400,1.658500244140625,3.3124078074425456,-2.3108257500723,0.29292554623186584
1683691144612471300,1.66847119140625,0.7875859632074832,-3.2981206311538815,-0.486363713273406
1683691144622442200,1.678442138671875,0.39703415548205373,-3.5256846474200487,-0.18472353018820284
1683691144632412400,1.688412353515625,1.2653402535676956,-3.250453163310885,0.7394517546355724
1683691144642383400,1.69838330078125,0.5614350286096335,-2.821993065212667,0.9060223730176686
1683691144652354300,1.708354248046875,0.014617138895392416,-2.5426044614240526,0.7945558022201061
1683691144662325500,1.718325439453125,-0.4640472520470619,-1.8751818779498337,0.1531973420679569
1683691144672295400,1.72829541015625,-0.9683534492462873,-1.6506009691476822,-0.7158242108106613
1683691144682266000,1.73826611328125,-1.0480781433463096,-1.466476573896408,0.5713216318517923
1683691144692237300,1.7482373046875,-0.2683937470436096,-0.4652466909646988,1.227548575311899
1683691144702208300,1.758208251953125,-0.1181418107777834,-0.051063832283020014,0.8335738074004649
1683691144712178200,1.76817822265625,-1.1442658964693546,-0.24907559085041284,0.1605348453491926
1683691144722149400,1.7781494140625,-1.1834107428997753,0.5636132494315504,0.006961071184277534
1683691144732120300,1.788120361328125,-0.9329466203004121,1.6062883646905421,1.2509651067346335
1683691144742091500,1.798091552734375,-1.7882582122564314,0.987889924365282,1.7568641260832547
1683691144752061400,1.8080615234375,-2.8040789305984974,0.9040430357687175,1.2548247047722338
1683691144762032400,1.818032470703125,-2.7586101418435574,1.3937234723746776,0.3409130398094654
1683691144772003300,1.82800341796875,-2.6453029116153717,1.6667770279228686,-0.4370499395281076
1683691144781974300,1.837974365234375,-2.5925024647980925,1.8617228230483829,-0.7168518002927303
1683691144791944200,1.847944091796875,-2.246974040147662,2.1833156608380375,-0.45521220368444915
1683691144801915400,1.857915283203125,-1.324500883066654,2.343134174611419,0.18535832096040247
1683691144811886300,1.86788623046875,0.017716858476400376,2.400670417778939,0.401755923306942
1683691144821857300,1.877857177734375,1.5355647231698035,2.2426991393074394,-0.44708325776457786
1683691144831827500,1.887827392578125,2.5232816290557385,1.8331974241793154,-1.593793040254712
1683691144841798400,1.89779833984375,1.958043701031804,1.6076837645716964,-1.6600000811338425
1683691144851769300,1.907769287109375,1.0675357080101966,1.6055160651437936,-1.0621610292345285
1683691144861740300,1.917740234375,-0.14463175829648972,1.187605125849694,-1.8847323811054228
1683691144871710200,1.927710205078125,-1.1381652415066956,1.054814611994475,-2.6787726350188255
1683691144881681400,1.937681396484375,-0.778628749769926,1.1461306674279272,-2.2140672113239765
1683691144891652400,1.94765234375,-0.24067104285955426,0.9767959911599755,-1.648279248201847
1683691144901620200,1.9576201171875,-0.5198801984280348,0.26672172217816115,0.1397825646996498
1683691144911590100,1.967590087890625,-0.3420376599252224,0.36920039213895794,-1.0759656827032567
1683691144921561300,1.977561279296875,-0.19571897145509717,1.121741345450282,-0.02166413479745388
1683691144931532000,1.987531982421875,0.5723024595826864,0.3408396823123097,-0.35612872911989685
1683691144941503200,1.997503173828125,-1.1360633007913827,0.18527356528639793,-2.273046639037132
1683691144951473200,2.00747314453125,0.4305436263740062,0.7061749234557151,-0.56983402364254
1683691144961444000,2.017444091796875,2.4776667098283767,0.2847881247445941,1.9725953734755515
1683691144971415300,2.027415283203125,1.8960972402065992,-0.39297377417534585,3.0175621068030596
1683691144981386200,2.03738623046875,-0.7339853059232234,-1.5541104336857794,0.6791384479701519
1683691144991356200,2.047356201171875,-0.05280220038294792,-1.24602940389812,0.5867208610355854
1683691145001327400,2.057327392578125,1.4073311419665813,-1.311479488930106,0.48895548333227634
1683691145011298300,2.06729833984375,1.3205524377018212,-2.0176351231634615,0.5316466240674257
1683691145021269200,2.077269287109375,1.08451957603693,-2.2065008677229283,1.0154998158246278
1683691145031240200,2.087240234375,1.0363047034442425,-2.3591774007871744,1.1949953822314738
1683691145041210000,2.097210205078125,1.392199039286375,-2.605513629801571,0.3714338502794504
1683691145051181300,2.107181396484375,1.325103525134921,-2.7203204509377477,-0.26304946340620516
1683691145061152300,2.11715234375,1.3298913439333437,-2.934230328121781,-0.012988660910725593
1683691145071123200,2.127123291015625,1.299504388976097,-2.908592905779183,0.2943050178915262
1683691145081093400,2.13709326171875,0.952361514866352,-2.750960503873229,0.6406909361541271
1683691145091064300,2.147064208984375,0.38726562566161155,-2.360758970890194,0.7279992172509432
1683691145101035000,2.157034912109375,-0.664057783216238,-1.7668034824259577,0.1676724421441555
1683691145111006200,2.167006103515625,-1.1822171492010354,-1.5221766876779497,-0.5383896685868501
1683691145120976100,2.17697607421875,-0.7891238402992486,-1.3213308747284114,-1.0811135669857264
1683691145130947000,2.186947021484375,-0.03204991973340511,-0.8300745671078562,-1.3081406998962164
1683691145140918300,2.196918212890625,0.12235095290541648,-0.15816957752257585,-1.2749457017809152
1683691145150889200,2.20688916015625,-0.42351884230375286,0.705630441315472,-0.5330523992121219
1683691145160859100,2.216859130859375,-0.5375403582811356,0.7384623052068054,1.2166671158134936
1683691145170830300,2.226830322265625,-0.17636603620946406,1.3121340073160825,2.30695650742352
1683691145180801300,2.23680126953125,0.15090426269471643,1.6520251567319035,1.9362386964589355
1683691145190772200,2.246772216796875,0.3365437386840582,2.057211931270361,1.1016168413102627
1683691145200742100,2.2567421875,-0.05388005874752998,2.6281673601582645,0.5706698899447917
1683691145210713000,2.266713134765625,-0.26920038725137707,3.216607592332363,0.42425650892853733
1683691145220684300,2.276684326171875,-0.0020586860954761505,3.6780671659737822,-0.023001520881056784
1683691145230655200,2.2866552734375,0.1199275251507759,3.605875789988041,-0.12844284003973006
1683691145240625200,2.296625244140625,-0.3086579528927803,3.483623621281981,-0.27374679850935935
1683691145250596400,2.306596435546875,-1.372243461972475,2.903365526519716,-0.2884673977792263
1683691145260567300,2.3165673828125,-1.6887655723690986,2.2576988477796314,-0.3058803048729896
1683691145270538000,2.3265380859375,-1.3877443979650734,1.8311404916495084,-1.218537001338601
1683691145280508200,2.336508056640625,-1.3970844732403755,1.6240686437919736,-2.50145850430429
1683691145290479000,2.34647900390625,-1.2951543770730494,1.2230097628384828,-2.899436662638187
1683691145300450000,2.356449951171875,-1.187359772786498,0.6840633371517062,-2.2029010896652936
1683691145310421200,2.366421142578125,-0.7993015354424715,0.2589209852993488,-1.4041753082841635
1683691145320391200,2.37639111328125,-0.26240824289321896,-0.19759177958965302,-0.32917700930833815
1683691145330362400,2.3863623046875,0.0001356090784072876,-0.22004414215534923,0.007342179456353187
1683691145340333300,2.396333251953125,-1.2052175010383128,-0.01743336535990238,-0.19082710776031017
1683691145350304000,2.406303955078125,-0.7062596791297197,-0.4500000219941139,0.7127414423644542
1683691145360274400,2.4162744140625,-1.0860235508590936,-0.43662820698469873,0.5163005863755941
1683691145370245000,2.4262451171875,-0.46369303178191185,-0.9533826746076345,-0.29905192015767096
1683691145380216000,2.436216064453125,0.10652677630782127,-0.760609108954668,0.07627543042898177
1683691145390187300,2.446187255859375,-0.31397125687003136,-0.7846791358500719,-0.04435819716453552
1683691145400157200,2.4561572265625,-0.19056115030050277,-0.6666498455360531,-0.43909985779523847
1683691145410128100,2.466128173828125,-0.6582850450336932,-0.296690743984282,-0.3466407698065042
1683691145420099300,2.476099365234375,-0.7193529694586992,-0.7910363959223031,0.10913023680448532
1683691145430070300,2.4860703125,-0.3802478558540344,-0.9112743021965026,0.1503010361045599
1683691145440040200,2.496040283203125,-0.8038117063432931,-0.5503010556548833,0.38609365927278994
1683691145450011100,2.50601123046875,-0.7499106048077344,-0.35080636505335566,0.7560393168210983
1683691145459982000,2.515982177734375,-0.9069920948326587,-0.0068485507205128665,1.0645786117702722
1683691145469953300,2.525953369140625,-1.1305138499706984,0.5710846082255244,0.40922494401335713
1683691145479924200,2.53592431640625,-1.8575076895713805,0.7601034975200891,0.3342851461023092
1683691145489894100,2.54589404296875,-0.8415110301405191,-0.07813771716952324,0.44642567063868044
1683691145499865300,2.555865234375,0.06635550943911075,-1.2260890241533517,-0.12328384984135626
1683691145509836300,2.565836181640625,0.5101525851398706,-1.0460703106552363,-0.4694184236913919
1683691145519807000,2.575806884765625,-0.3710147480845451,-1.1406178953558206,-2.219739996263385
1683691145529777400,2.58577734375,0.9296668679773807,-1.5104782127082348,-0.2625876911133528
1683691145539748000,2.595748046875,3.5066613825201984,-1.51319097879827,1.3360674022197723
1683691145549719000,2.605718994140625,2.7559441375046965,-2.3547014244168993,0.012101356682181357
1683691145559690200,2.615690185546875,1.2517097876220942,-2.390497837202251,0.008552724289894103
1683691145569660200,2.62566015625,1.4977829817861317,-2.506245154058933,0.9769149413645267
1683691145579631000,2.635631103515625,1.3370011759385465,-3.2258681726306677,0.9437509229093789
1683691145589602300,2.645602294921875,0.7662313327506184,-3.2419130062416195,0.44482641874849793
1683691145599573200,2.6555732421875,0.1295934713795781,-3.2889035977363585,-0.22220365827679633
1683691145609543200,2.665543212890625,-0.3503887241631746,-3.419622858275473,-0.4543009340584278
1683691145619514000,2.67551416015625,-1.4928373420774936,-3.248905349346995,-0.38073768519759177
1683691145629485000,2.685485107421875,-1.4210907872498035,-2.913331916999817,-0.13616028254926205
1683691145639456300,2.695456298828125,-1.251603696899116,-2.1479487255111334,0.2882067010164261
1683691145649426200,2.70542626953125,-1.5640227558910846,-1.786978109318018,0.21463117719590663
1683691145659397000,2.715397216796875,-1.2666617114298044,-1.5546934942707418,-0.23397417556941508
1683691145669368300,2.725368408203125,-1.121169098520279,-0.8684428762078285,0.04231353959441185
1683691145679339300,2.73533935546875,0.06667977295741438,-0.2042225959062576,-0.17825754904448984
1683691145689309200,2.74530908203125,-3.2516251296997067,2.537942607092857,-0.5392682049870491
1683691145699280400,2.7552802734375,-3.643529521077871,1.5889169586509466,-1.091041671282053
1683691145709251000,2.7652509765625,-2.5841362029910084,-0.152827924233675,-1.9357816003412007
1683691145719222300,2.77522216796875,-2.5746318770647045,2.355319264054298,-1.4661661927729843
1683691145729192200,2.785192138671875,-2.2578443937301635,-1.9867185913741587,-1.3839397449851034
1683691145739163100,2.7951630859375,1.882038904237747,-1.8120652043014764,0.6161772571444512
1683691145749134300,2.80513427734375,2.634274152600765,-1.4859557658702134,1.6384341460138558
1683691145759105300,2.815105224609375,2.991294277602434,-2.569202837753296,3.079372958549857
1683691145769076200,2.825076171875,4.907199211084842,-3.67564724535048,3.4155203913927075
1683691145779046400,2.83504638671875,5.2474225150644775,-3.646075113907456,2.8280139329373837
1683691145789017000,2.84501708984375,4.274411010879278,-2.602576699566841,2.3860610237985846
1683691145798988000,2.854988037109375,1.6708453002750872,-1.438331844907999,1.7597312059521675
1683691145808959200,2.864959228515625,-0.03535670619383454,0.19008359591662882,1.312694125416875
1683691145818929200,2.87492919921875,-1.036042545376718,1.924031541314721,0.9148352095484733
1683691145828900000,2.884900146484375,-2.1429792665354905,3.287959594884515,-0.08863748387396335
1683691145838871300,2.894871337890625,-2.8235224667370318,4.5665229026407,-0.7833189534127711
1683691145848842200,2.90484228515625,-2.277698556496203,6.421455188766122,-0.8255208493262529
1683691145858812200,2.914812255859375,-1.4838742834210394,8.538199505457282,-0.49304070681929585
1683691145868783400,2.924783447265625,0.9888367036961019,7.6507234274774785,-0.4138058420628309
1683691145878754000,2.934754150390625,2.88037189668417,5.973655891686677,-0.4356178608983755
1683691145888725200,2.944725341796875,3.8060511563301085,4.616342872342467,0.8320435290932655
1683691145898696200,2.9546962890625,3.42021527121067,3.088651074504852,1.4927216067433355
1683691145908665900,2.964665771484375,3.2576293385505672,3.2888474836349486,2.156516355109215
1683691145918637000,2.974636962890625,1.8983847666218876,0.04042319580316543,1.4124819488584994
1683691145928608000,2.98460791015625,2.5270655315086246,0.2551175013631582,2.7072639854878187
1683691145938579200,2.9945791015625,0.9660952950559556,-3.0596272245943545,2.262331768277287
1683691145948549000,3.004549072265625,-0.3805846865929663,-3.5020740547299383,3.4234693045705553
1683691145958519800,3.014519775390625,0.02419686814546585,-4.442466899383068,2.5896318777978418
1683691145968491000,3.024490966796875,-1.4445102412819861,-5.648616128313541,0.48249710097312926
1683691145978462000,3.0344619140625,-3.3955183445885777,-6.494623300829529,-0.7710971852213144
1683691145988432000,3.044431884765625,-5.741204395639896,-6.2813265871077775,-1.5437953758984804
1683691145998403000,3.054403076171875,-5.271321277046203,-6.831403186357021,-3.3562136314213276
1683691146008374000,3.0643740234375,-4.4150458084940905,-5.092095175230503,-2.5308722303152082
1683691146018345000,3.074344970703125,-5.114616803640127,-4.493272372990846,-1.7806617657780646
1683691146028315100,3.084315185546875,-4.317461048054695,-4.5524686583250755,-3.8366824414372442
1683691146038286000,3.0942861328125,-2.849149075424671,-5.8339259339571,-5.213410355347395
1683691146048257000,3.104257080078125,-0.36896073816418645,-6.171004510170221,-3.9169548325479027
1683691146058228000,3.11422802734375,1.6327756818607448,-7.609177365124225,-0.4628256012976169
1683691146068199000,3.124198974609375,5.997542963230609,-6.53669777097106,4.668411497753858
1683691146078169000,3.134169189453125,8.011780845171213,-3.150262019765377,1.3057266244918107
1683691146088140000,3.14414013671875,0.005845218896865845,-4.638673946616053,-0.4067570925951004
1683691146098111000,3.154111083984375,-0.7473346168398857,3.0318560050934553,-0.9347384721532463
1683691146108082200,3.164082275390625,-3.924975641918182,8.977406330758333,-1.0026765746086834
1683691146118052000,3.174052001953125,-4.253807783311605,11.672667159241437,-4.218200463357568
1683691146128022800,3.184022705078125,-3.9036017222389576,12.19913550388813,-3.3525364042133092
1683691146137994000,3.193993896484375,-2.3590450065791604,11.785586266934871,-1.5412348777607083
1683691146147965000,3.20396484375,2.0459572545453906,10.791861645066737,0.41005788770616053
1683691146157934800,3.213934814453125,6.950061129963397,6.837103443825245,-0.08239245200455188
1683691146167906000,3.223906005859375,4.7696039272964,7.173101239064335,-3.5595799027591943
1683691146177877000,3.233876953125,-1.4140578198730944,7.803921354067326,-3.72202905729711
1683691146187848200,3.24384814453125,0.5456216656669974,5.7715451733678576,1.9459645561814307
1683691146197818000,3.253818115234375,3.3045933342993257,2.913281648117304,4.06655327334106
1683691146207789000,3.2637890625,0.08290171670094132,-2.449438978731632,0.8122709071308374
1683691146217760000,3.273760009765625,-2.710668825495243,-6.065144673338532,-2.1409046522185204
1683691146227731000,3.28373095703125,-3.635724984806776,-5.602649326908588,-2.275299970921874
1683691146237700900,3.293700927734375,-2.678658068728447,-3.3592759416013953,-1.1129936831101774
1683691146247672000,3.303672119140625,-0.34349311943054195,-4.104085423877835,0.9772747145876288
1683691146257643000,3.31364306640625,1.2376853539228438,-3.2840678481429815,2.4776067963346837
1683691146267614000,3.323614013671875,3.458845153856277,-2.4609680884838103,3.4131986704468726
1683691146277585200,3.333585205078125,1.9655340567871926,-4.039543101340532,-1.9758757103204727
1683691146287555000,3.34355517578125,1.8228114931128918,-3.3090251792669294,-3.0641344728857276
1683691146297525800,3.35352587890625,2.142910731343925,-3.5661259634017943,-1.4839067243859172
1683691146307497000,3.3634970703125,1.3607901939354836,-2.9575474908232686,0.04846387891769409
1683691146317468000,3.373468017578125,0.9094225368499755,-2.3753695339143275,2.015222801324725
1683691146327437800,3.383437744140625,0.30893501626849174,-0.9429518814861774,4.432192465867102
1683691146337409000,3.393408935546875,-2.6195208201050755,-1.9408938287883997,4.32340095949769
1683691146347380000,3.4033798828125,-5.507188719016313,-5.914861172890663,3.0284093717709184
1683691146357351200,3.41335107421875,-2.171211235415935,-12.599335429924725,7.257713705205917
1683691146367321000,3.423321044921875,3.315046339252591,-17.876389697664976,7.822726592302322
1683691146377292000,3.4332919921875,-0.18019640815258026,-12.41767420991659,-1.177440144057572
1683691146387263000,3.443262939453125,0.9044516165696084,-3.990133466005325,-5.907934588497877
1683691146397234000,3.45323388671875,3.9403275248289105,-8.479411216402053,-3.844952549393475
1683691146407203800,3.463203857421875,2.8824034025117755,-8.005711169868707,-0.1969789083883166
1683691146417175000,3.473175048828125,1.1015827929101885,0.5172516034901142,0.4398407392904162
1683691146427146000,3.48314599609375,-3.6791622677341103,11.50807397841215,0.5395359160125255
1683691146437117200,3.4931171875,-4.559913713634014,14.674068989360332,-2.192413597920537
1683691146447087000,3.503087158203125,0.41733218955807383,7.952876820781826,-3.5825896069467067
1683691146457058000,3.51305810546875,-3.1726819413661955,7.63934337080717,-1.8650927378728985
1683691146467029000,3.523029052734375,-1.2779273479402065,4.823168344223499,-3.019069881017506
1683691146477000000,3.533,0.9513068912468851,2.56240660174191,-1.5903475759759544
1683691146486971000,3.542970947265625,-0.6749953568160534,5.111791224825382,-1.1864707149922846
1683691146496941000,3.552941162109375,-0.6307308292843401,5.499835433644056,-1.5995511653900145
1683691146506912000,3.562912109375,-1.203654489505291,5.335043515372276,0.6448559468790889
1683691146516883000,3.572883056640625,-0.80959905757308,3.547768468934297,2.100707666386664
1683691146526854100,3.582854248046875,-0.7759505435366183,3.0596663875609633,2.2820399467013774
1683691146536824000,3.592823974609375,-0.4424188461501151,2.2072171992987393,2.641193722730875
1683691146546795000,3.602794921875,-2.2746575813651084,2.3856512739539144,0.6311380949109793
1683691146556766000,3.612765869140625,-1.633937419116497,3.6915608537971973,0.05270370844453573
1683691146566737000,3.62273681640625,0.4022187185131013,3.2385236560642716,0.17604659499675035
1683691146576706800,3.632706787109375,2.3832440666817125,2.3661562998890875,1.1390478695601225
1683691146586678000,3.642677978515625,3.084102325159311,1.6347960817724465,2.118445275390148
1683691146596649000,3.65264892578125,6.984134079957008,-1.1168173330515623,4.526389921955764
1683691146606620200,3.6626201171875,2.397845277355611,-1.9067209255516528,5.197227866831422
1683691146616590000,3.672590087890625,-3.314499811285734,2.260845913633704,3.149838533656299
1683691146626561000,3.68256103515625,-5.702717136335373,3.431822122374177,1.9841272597067057
1683691146636532000,3.692531982421875,-5.309488218355178,2.84907601018846,0.7087856904760003
1683691146646503000,3.7025029296875,-0.7731821748018264,1.4193220240116118,-0.8708014220327138
1683691146656472800,3.712472900390625,3.53694663066864,-0.19625205541849136,-1.7627172360256314
1683691146666444000,3.722444091796875,4.235688773775101,-1.8423060287863016,-2.0392989656999707
1683691146676415000,3.7324150390625,1.8114567170143125,-2.835800933551788,-1.7261808185279368
1683691146686386200,3.74238623046875,-0.02272854915857315,-2.842069346296787,-0.4981386144801974
1683691146696356000,3.752356201171875,-0.4016238213598728,-2.3109797715902327,0.6630418841719627
1683691146706327000,3.7623271484375,-0.05976634030714631,-1.6863871527999639,0.43169396545290945
1683691146716298000,3.772298095703125,0.9091137631617486,-0.9020885407000779,-0.4245237815625965
1683691146726269000,3.78226904296875,0.40634178979247804,-0.11606792711317539,-0.8863571569524705
1683691146736238800,3.79223876953125,-0.5263831505812704,0.4950865334331989,-0.805541745006293
1683691146746210000,3.8022099609375,-0.6509377510108053,0.6304618030846119,-0.40030937776044007
1683691146756181000,3.812180908203125,-0.3693498836122453,0.23756080188453196,-0.04317541712075472
1683691146766152000,3.82215185546875,-0.11095526027455925,-0.1806862374961376,0.15984306369274853
1683691146776123100,3.832123046875,0.13525851140394807,-0.45587622055113314,0.23293518791049717
1683691146786093000,3.842093017578125,0.17833748241290448,-0.5519564216464757,0.2262836210668087
1683691146796064000,3.85206396484375,0.12086729021891951,-0.44833764173984525,0.21674524674043058
1683691146806035000,3.862034912109375,-0.007516805370897054,-0.20456395668983457,0.15023820000141858
1683691146816006000,3.872005859375,-0.13717574320212006,0.07855038962364197,0.061109425479173654
1683691146825975800,3.881975830078125,-0.13476985110417009,0.24723405463695525,-0.07681918191686272
1683691146835947000,3.891947021484375,-0.062123132566362614,0.32402737146019933,-0.18891396761536597
1683691146845918000,3.90191796875,-0.013974895469099283,0.2794388726711273,-0.2602148245021701
1683691146855889200,3.91188916015625,0.0194270233951509,0.14007248755693436,-0.3056289604604244
1683691146865859000,3.921859130859375,0.011171528486162423,0.013318915778398513,-0.2851753704965114
1683691146875830000,3.931830078125,-0.028711569090932604,-0.10530337199270724,-0.30526831045448777
1683691146885801000,3.941801025390625,-0.057362640166282654,-0.14910042814314364,-0.371143635161221
1683691146895772000,3.95177197265625,-0.07078662375435232,-0.13413023802638052,-0.46802930742055177
1683691146905742300,3.961742431640625,-0.0908804404951632,-0.10542962872087955,-0.5461000968337059
1683691146915713300,3.97171337890625,-0.050792760256677866,-0.10537234557569027,-0.5768085388302803
1683691146925684200,3.981684326171875,0.02245513904467225,-0.1033972461104393,-0.5246227167800068
1683691146935655400,3.991655517578125,0.02724646497443318,-0.09055880732536316,-0.41018969739228484
1683691146945626400,4.00162646484375,0.00898994666337967,-0.10245616586804389,-0.3179007052734494
1683691146955596500,4.011596435546875,0.01077346907928586,-0.10511866307556629,-0.269539994469285
1683691146965567200,4.021567138671875,0.02374313302859664,-0.08331073589324951,-0.24620880324244498
1683691146975538200,4.0315380859375,0.055660220162570474,-0.03932020299732685,-0.21889409533739088
1683691146985509400,4.04150927734375,0.04223535979166627,0.004817629414796829,-0.2177209599047899
1683691146995479300,4.051479248046875,-0.03211436327174306,0.003391396003961563,-0.20540742177665233
1683691147005450200,4.0614501953125,-0.13827084496244788,-0.03995207116007805,-0.1817027210623026
1683691147015421400,4.07142138671875,-0.15652458679452538,-0.06419745462238788,-0.14918606059998274
1683691147025392400,4.081392333984375,-0.13909648213163017,-0.09857786312997341,-0.12371055082082748
1683691147035362300,4.0913623046875,-0.13532719272598623,-0.11573767224550247,-0.06997516124099493
1683691147045333500,4.10133349609375,-0.12373524687066674,-0.10124211390316486,-0.014657470905780791
1683691147055304200,4.11130419921875,-0.10065364649072289,-0.0933802944868803,0.0344686713129282
1683691147065275400,4.121275390625,-0.06560556785464286,-0.08873217642009258,0.04271802874207496
1683691147075245300,4.131245361328125,-0.04000950043573975,-0.1071393552482128,0.05200462026447057
1683691147085216300,4.14121630859375,-0.004655424590408802,-0.106333299562335,0.046370121508836744
1683691147095187500,4.1511875,0.03306304229870438,-0.1065431429207325,0.016117898847162724
1683691147105158400,4.161158447265625,0.021527941197156904,-0.0921469532996416,0.022684710016846656
1683691147115128300,4.17112841796875,0.018211510125547645,-0.06858721401393413,0.07351999424099921
1683691147125099500,4.181099609375,0.039605011288076634,-0.0318587810754776,0.1349447692796588
1683691147135070200,4.1910703125,0.05068754631653428,0.04431143541336059,0.18653350221961734
1683691147145041200,4.201041259765625,0.09108721511363983,0.14195347899794578,0.21025953798294067
1683691147155012400,4.211012451171875,0.1331748369976878,0.21379414184987544,0.22150983079373834
1683691147164982300,4.220982177734375,0.14743161814808844,0.2524164257109165,0.2031768862456083
1683691147174953200,4.230953125,0.12296703897714614,0.2554664609313011,0.19416911166459322
1683691147184924400,4.24092431640625,0.10966580498591065,0.22124153524637222,0.17460311819016933
1683691147194895400,4.250895263671875,0.09360533541440963,0.14974983196258543,0.14517127200067043
1683691147204865300,4.260865234375,0.07995558024644851,0.07940379158258437,0.1394476336568594
1683691147214836500,4.27083642578125,0.07971008105278014,0.027654899644851683,0.1406824361488223
1683691147224807200,4.28080712890625,0.10319485540613531,0.004037292692065239,0.11356646568626165
1683691147234778400,4.2907783203125,0.05785948377251625,-0.022431612038612363,0.06929127063006162
1683691147244748300,4.300748291015625,-0.002766249842941761,-0.04384849407672882,0.03444733626395464
1683691147254719200,4.31071923828125,0.018804361452162265,-0.0678349343419075,0.0038020226314663887
1683691147264690400,4.3206904296875,0.024887626888602972,-0.08420914603769779,-0.00048690673410892486
1683691147274661400,4.330661376953125,0.03898644099831581,-0.06703881552815437,0.007959142310917378
1683691147284631300,4.34063134765625,0.09493015427738427,-0.03358896586894989,-0.00042699324041604994
1683691147294602500,4.3506025390625,0.12456629086732864,0.01609305666685104,0.0015896072790026663
1683691147304573200,4.3605732421875,0.13741875817775726,0.026619126856327054,0.007374620421230793
1683691147314544400,4.37054443359375,0.1432835585579276,0.008431143736839295,0.02288929267823696
1683691147324514300,4.380514404296875,0.15126491270065306,-0.015707272219657897,0.05972264729589224
1683691147334485200,4.3904853515625,0.1636348571911454,-0.03726619307696819,0.0652007864460349
1683691147344456400,4.40045654296875,0.18994141096696257,-0.054604865890741344,0.06247720670104026
1683691147354427400,4.410427490234375,0.16069237399846314,-0.08676876739263534,0.042934301841259
1683691147364397300,4.420397216796875,0.09602321021109819,-0.09111644120812415,0.05834697502851486
1683691147374368500,4.430368408203125,0.13153379179239272,-0.07185995207428932,0.06691898854076862
1683691147384339500,4.44033935546875,0.202104142447561,-0.04295709819495678,0.09548194294124841
1683691147394310100,4.45031005859375,0.22985256559476255,-0.026102409505844113,0.11176321565657854
1683691147404281300,4.46028125,0.25936741389259693,0.005440729749202728,0.11363690057396889
1683691147414251300,4.470251220703125,0.2974326483927667,0.06468962205350398,0.09312047450691462
1683691147424222200,4.48022216796875,0.2765641940176487,0.08318272559940815,0.07535247036516667
1683691147434193400,4.490193359375,0.1839981385231018,0.07548749492168426,0.07189706921428442
1683691147444164400,4.500164306640625,0.15813056068643927,0.06675064623653888,0.08853548480421304
1683691147454134300,4.51013427734375,0.2243102751672268,0.050964463561773296,0.09794102653115987
1683691147464105500,4.52010546875,0.22891265439614653,0.024326047483086585,0.11091595117747784
1683691147474076200,4.530076171875,0.15721388423293828,0.03107669078707695,0.10576163715422153
1683691147484047400,4.54004736328125,0.11287117689847946,0.038515900877118106,0.09722148008495568
1683691147494017300,4.550017333984375,0.09447831885665654,0.03642798868715763,0.07914981682151556
1683691147503988200,4.55998828125,0.08264467319995164,0.029381577306985852,0.07778992664515971
1683691147513959400,4.56995947265625,0.08155015596151352,0.03973813614845276,0.07514964126944541
1683691147523930400,4.579930419921875,0.0887026580646634,0.048100306302309034,0.06966156524717808
1683691147533900300,4.589900390625,0.10655483335852622,0.02745850028991699,0.07822305736541747
1683691147543871500,4.59987158203125,0.17832827619314193,0.00890752907693386,0.07587678650021552
1683691147553842400,4.609842529296875,0.1923787211164832,-0.01182020165324211,0.07495791808962822
1683691147563813000,4.619813232421875,0.14920388851761818,-0.017584756529331207,0.058066696782410145
1683691147573783300,4.629783203125,0.1034255954220891,-0.018393734824657438,0.051557753279805184
1683691147583754200,4.639754150390625,0.10006576360017061,-0.01744330223202705,0.05769347955584526
1683691147593725400,4.649725341796875,0.09873276143074035,-0.006914893954992294,0.06725684219300747
1683691147603696400,4.6596962890625,0.08996478695496916,-0.010587444987893104,0.07062047340720891
1683691147613667300,4.669667236328125,0.07391863816976547,-0.004501403072476387,0.031162615504860876
1683691147623637500,4.679637451171875,0.050137803479284045,0.00949964975118637,-0.013686287786066531
1683691147633608400,4.6896083984375,0.030420564965903757,0.01130348430275917,-0.03251169202625751
1683691147643579100,4.6995791015625,0.001384147834777832,-0.0016378303349018097,-0.05402414339333772
1683691147653550300,4.70955029296875,0.007033844159543514,-0.011549568018317222,-0.048967736786603926
1683691147663520300,4.719520263671875,0.018675474375486372,-0.026300562426447866,-0.038543373405933376
1683691147673491200,4.7294912109375,0.021308014836162327,-0.044102761098742484,-0.0002411152794957161
1683691147683462400,4.73946240234375,0.01494505567550659,-0.04901157592833042,0.029456103847920894
1683691147693433300,4.749433349609375,0.018110826230049133,-0.05956745673418045,0.04555149860233068
1683691147703403300,4.7594033203125,0.05894552544355392,-0.050838206833601,0.05573328539878129
1683691147713374500,4.76937451171875,0.10758709901571273,-0.02236731463074684,0.05161912807822227
1683691147723345200,4.77934521484375,0.13644012240394948,0.003147650375962257,0.03761164551377296
1683691147733316400,4.78931640625,0.1407971485696733,0.016360183170437814,0.02891892823129892
1683691147743286300,4.799286376953125,0.12595306905061004,0.014246552017331122,0.02547814012765884
1683691147753257200,4.80925732421875,0.13920154994130135,-0.02074701995253563,0.02632569686770439
1683691147763228400,4.819228515625,0.1352419986605644,-0.04718962119817734,0.0258133634313941
1683691147773199400,4.829199462890625,0.09663228202015162,-0.03499649457931518,0.03570990354567766
1683691147783169300,4.839169189453125,0.07762684503793715,-0.01320844114124775,0.023159049530327318
1683691147793140500,4.849140380859375,0.07741393293961882,-0.0023655600875616073,0.020080080476403236
1683691147803111400,4.859111328125,0.08682400471121073,0.007432195827364921,0.017530688254535198
1683691147813082000,4.86908203125,0.07369651985168457,0.01920680477321148,0.009185761496424675
1683691147823052300,4.87905224609375,0.05369169656857848,0.03542845625579357,0.0006757073044776916
1683691147833023200,4.889023193359375,0.05549553112015128,0.026710896793007848,-0.013036883966624736
1683691147842994200,4.898994140625,0.0550339049577713,-0.008727496334910392,-0.02308715333789587
1683691147852965400,4.90896533203125,0.05166223656758666,-0.029590251621603964,-0.01919452981352806
1683691147862935300,4.918935302734375,0.06163549517989158,-0.024509002834558487,-0.016120821456611156
1683691147872906500,4.928906494140625,0.06884469590634107,-0.03601064005792141,-0.015080664753913878
1683691147882877400,4.93887744140625,0.05886252333521843,-0.043513563033938406,-0.03406827381849289
1683691147892848000,4.94884814453125,0.06065393679663539,-0.052255087894201274,-0.031083997310698032
1683691147902819300,4.9588193359375,0.02613485047072172,-0.05327274050414562,-0.04303776221573353
1683691147912788700,4.968788818359375,0.0044917584612965585,-0.020023381853103636,-0.046162323977053166
1683691147922759700,4.978759765625,0.026899405102431773,0.023403087419271468,-0.038491350957751275
1683691147932730600,4.988730712890625,0.04666574345454574,0.05489186613857746,-0.032765959048271176
1683691147942701800,4.998701904296875,0.05198065486699342,0.0678781889617443,-0.03031067485064268
1683691147952671700,5.008671630859375,0.055201078218221664,0.05602759217023849,-0.03761953655928373
1683691147962642700,5.018642578125,0.017693477600812912,0.021665303841233254,-0.05843494557291269
1683691147972614000,5.02861376953125,-0.04190642009824514,-0.031871640557050704,-0.09187631966471671
1683691147982584800,5.038584716796875,-0.06631751551628112,-0.06725158149600029,-0.08814473192095756
1683691147992554800,5.0485546875,-0.05187836353629827,-0.08024667214751244,-0.025727146452665328
1683691148002525700,5.058525634765625,-0.05233502126261592,-0.040296939074993134,0.037649931697547434
1683691148012496600,5.06849658203125,-0.021308160966634748,0.004775543838739395,0.11569792475700377
1683691148022467600,5.078467529296875,-0.013404255974292754,0.04568038567900658,0.17331746229380368
1683691148032437800,5.088437744140625,-0.012869710706174374,0.07979659029245376,0.20675649829804896
1683691148042408700,5.09840869140625,0.013794716596603392,0.07255904025435447,0.19582535443902013
1683691148052379600,5.108379638671875,0.046191111680120224,0.04602992976903915,0.16383797854781149
1683691148062350800,5.118350830078125,0.039595220546424385,0.011601590466499327,0.12637918550819158
1683691148072320800,5.12832080078125,0.04023118036240339,-0.011564181065559386,0.12443565022498368
1683691148082291700,5.138291748046875,0.044480069978535174,-0.02352232988476753,0.11953209609240292
1683691148092262700,5.1482626953125,0.027384850531816482,-0.023848493099212643,0.09949643927961588
1683691148102233600,5.158233642578125,0.028669629645347593,0.025886136406660078,0.06141513042747974
1683691148112203500,5.16820361328125,0.0655842328056693,0.09413082059323787,0.0029968437284231186
1683691148122174700,5.1781748046875,0.05239654219150543,0.11495908908843994,-0.016366612911224366
1683691148132145700,5.188145751953125,0.031305823367834086,0.0926262612491846,-0.02485825466364622
1683691148142116900,5.198116943359375,0.0066261401414871215,0.03191138804554939,-0.016420681186020372
1683691148152087800,5.208087890625,0.01648147146254778,-0.0014531214177608488,-0.014413433016836643
1683691148162057700,5.2180576171875,0.038218671496212483,-0.029400282007455824,-0.0013753800064325332
1683691148172028700,5.228028564453125,0.026423750414699316,-0.03412964861690998,0.021052724900841712
1683691148181999600,5.23799951171875,0.025046762973070142,-0.03216623958945274,0.02609130358994007
1683691148191970600,5.247970458984375,0.05151303735524416,-0.016125789892673492,0.012884323753416537
1683691148201940700,5.257940673828125,0.05975318856462836,0.0043862522602081296,0.0010544774889945983
1683691148211911700,5.26791162109375,0.0798231860384345,0.04809563012719154,0.012307692909240721
1683691148221883000,5.2778828125,0.0753568542793393,0.09705401456356048,0.04473667508810758
1683691148231853800,5.287853759765625,0.05151420639902353,0.14977964257895945,0.08566577458679675
1683691148241823700,5.29782373046875,0.07951236652359366,0.1809697306126356,0.11788432888537645
1683691148251794700,5.307794677734375,0.15012509501576424,0.1855482905745506,0.17051292626708744
1683691148261765600,5.317765625,0.1883187782011926,0.17432371672689914,0.22794629358202217
1683691148271736600,5.327736572265625,0.20487024616003036,0.16218378159999847,0.2936532759845257
1683691148281706800,5.337706787109375,0.20446663379520177,0.1635275974243879,0.3573448269113898
1683691148291677700,5.347677734375,0.1852633361533284,0.16414894419312476,0.3949856985196471
1683691148301648600,5.357648681640625,0.14188450541496275,0.13506898018121719,0.3860670635268092
1683691148311619800,5.367619873046875,0.03452639284953475,0.09181845199763775,0.3754109372168779
1683691148321589800,5.37758984375,-0.04460135827064514,0.05886135429143905,0.3638406186714768
1683691148331560700,5.387560791015625,0.004170855943858623,0.04794833061099052,0.3865978094026446
1683691148341531600,5.39753173828125,0.09169365657418965,0.0270224469602108,0.4634545468509197
1683691148351502600,5.407502685546875,0.17199410473555327,0.04138064265847206,0.5688251388609409
1683691148361472500,5.417472412109375,0.20219079781770705,0.09024199646115302,0.6370663159161806
1683691148371443700,5.427443603515625,0.23138635103330016,0.17122925784289836,0.7080152906253934
1683691148381414700,5.43741455078125,0.32245705340355635,0.2746358563035726,0.785900494338572
1683691148391385900,5.4473857421875,0.3886676014140248,0.37014264142513276,0.8868412872076034
1683691148401356800,5.457356689453125,0.4238511429980397,0.425577528399229,0.9434034246459603
1683691148411326700,5.46732666015625,0.6550503008961677,0.4932037884265184,0.9424503617048263
1683691148421297700,5.477297607421875,1.05668435138911,0.5969371346235275,0.8886965596854686
1683691148431268600,5.4872685546875,1.3064134377121925,0.7211456980943679,0.8044944279104471
1683691148441239600,5.497239501953125,1.2312126507773995,0.8562696233332157,0.6436161759510636
1683691148451209700,5.507209716796875,1.12256128353104,1.0041495697706937,0.4661468546748161
1683691148461180700,5.5171806640625,1.1432982204809785,1.1319570345163346,0.3215563051715493
1683691148471151600,5.527151611328125,0.9881520824328064,1.14886257660985,0.19339695824831724
1683691148481122800,5.537122802734375,0.9041443041861057,1.2195207516789435,0.22093378447145223
1683691148491092700,5.5470927734375,0.9227437907159328,1.2627309478521347,0.33907530298829075
1683691148501063700,5.557063720703125,1.108842993171513,1.2221639596641063,0.47014001596421
1683691148511034600,5.56703466796875,1.1361841506920753,1.1567968767404555,0.6016562720999121
1683691148521005600,5.577005615234375,0.6879423705421388,1.0472627353101969,0.671808835734427
1683691148530975700,5.586975830078125,0.2585293556332588,0.5850304237306118,0.5664566561639308
1683691148540946700,5.59694677734375,0.4335574212372303,0.010736498069763184,0.5625158095836639
1683691148550917600,5.606917724609375,1.0637971060037612,-0.4994102418512106,0.5623951058134437
1683691148560888800,5.616888916015625,1.3899953917622565,-0.9029898734539746,0.3148436557903886
1683691148570858800,5.626858642578125,1.0612018288135527,-1.3442752585947513,-0.2794382881492376
1683691148580829700,5.63682958984375,0.31282004100829364,-1.6737807692050932,-1.0223229398429394
1683691148590800600,5.646800537109375,-0.465585713660717,-1.6541659681528806,-1.6428025703564286
1683691148600771600,5.656771484375,-0.8630559224724769,-1.520973887759447,-2.215067620538175
1683691148610742800,5.66674267578125,-0.6187494457200169,-1.0878069271445274,-2.3114894746780394
1683691148620712700,5.676712646484375,-0.17618892607688902,-0.7541057184100151,-1.940527333563566
1683691148630683600,5.68668359375,0.21065467478036878,-0.5888508588016033,-1.28020552200526
1683691148640654800,5.69665478515625,0.4860414955817163,-0.6386199750989675,-0.6571224309951067
1683691148650625800,5.706625732421875,0.6293250541396439,-0.8344161034435034,-0.3439396941542625
1683691148660595700,5.716595703125,0.6788263132810592,-1.0136854598790406,-0.21479601236879825
1683691148670567000,5.72656689453125,0.5991796528533101,-1.0701204638063908,-0.15662760877758264
1683691148680537600,5.73653759765625,0.4572612451687455,-1.0748153436243533,-0.18114333361387253
1683691148690508500,5.746508544921875,0.4489383841119706,-1.0384797093957663,-0.28112083440870045
1683691148700478700,5.756478759765625,0.5104290639936924,-0.9609124855905771,-0.4343588007479906
1683691148710449700,5.76644970703125,0.5414557781592011,-0.8163128759980202,-0.6175231187954545
1683691148720420600,5.776420654296875,0.609976356677711,-0.6444611023426056,-0.8192658805847167
1683691148730391800,5.786391845703125,0.6805974146068096,-0.5022393277972936,-0.966550491477549
1683691148740361700,5.79636181640625,0.7496059227727353,-0.4001502416759729,-0.9907248555302619
1683691148750332700,5.806332763671875,0.7842556497409939,-0.33785014510750766,-0.8915764990359544
1683691148760303600,5.8163037109375,0.7637057597957551,-0.3304121040612459,-0.661724664093554
1683691148770274600,5.826274658203125,0.7163549566864967,-0.3487193296462297,-0.4260089055538177
1683691148780244500,5.836244384765625,0.7022491283141076,-0.374062445217371,-0.24602497110813853
1683691148790215700,5.846215576171875,0.6772117176912724,-0.4291507107108831,-0.1598442327365279
1683691148800186600,5.8561865234375,0.7162820375807583,-0.5647697259902954,-0.1689928770929575
1683691148810157800,5.86615771484375,0.830932937502861,-0.6942594447344541,-0.10160188712626696
1683691148820127700,5.876127685546875,1.0375925512976945,-0.7770172229200601,0.03724836515933275
1683691148830098700,5.8860986328125,1.3543196827471256,-0.7438625568151473,0.3586465571597218
1683691148840070000,5.89606982421875,1.4965639613851904,-0.6163467684924602,0.7461085821762681
1683691148850040600,5.90604052734375,1.3137950723960994,-0.5488368283212185,1.0655614853277802
1683691148860010500,5.916010498046875,0.7097209254994988,-0.569563390007615,1.1535457659900188
1683691148869981700,5.925981689453125,0.10530600234121083,-0.7035153488576412,0.8877990263238549
1683691148879952600,5.93595263671875,-0.10355740510821342,-0.9613234044790268,0.42893180726319546
1683691148889923800,5.945923828125,-0.009894786548614502,-1.2175666950017212,0.06323299350440502
1683691148899893800,5.955893798828125,0.09206541249603033,-1.369076522374153,-0.07816577422022819
1683691148909865200,5.965865234375,0.20942104133218525,-1.4354267711162567,0.003036591216921806
1683691148919836200,5.975836181640625,0.25202435765340925,-1.4099784416049719,0.14713862655088306
1683691148929807000,5.98580712890625,0.2673869080886245,-1.3116951775074004,0.2596756030589342
1683691148939778300,5.9957783203125,0.2899006454527378,-1.2365619028508663,0.23241847056001425
1683691148949748200,6.005748291015625,0.27547230712771414,-1.1973644494503737,0.06873977422714234
1683691148959719200,6.01571923828125,0.3589664367638528,-1.1725111632227896,-0.1225887071840465
1683691148969690400,6.0256904296875,0.4000611020877957,-1.1300187599301337,-0.35395869160443544
1683691148979661300,6.035661376953125,0.43315746213421225,-1.0410551128417254,-0.5776834219686686
1683691148989631200,6.04563134765625,0.5128656434908508,-0.9692553665220737,-0.7739560817837715
1683691148999602400,6.0556025390625,0.5974279868803918,-0.9454694172650575,-0.9242712925441563
1683691149009573000,6.065572998046875,0.6386250896655022,-1.0291635995179413,-1.011035676022619
1683691149019544300,6.07554443359375,0.6345927654094994,-1.184612519904971,-1.0597013611227273
1683691149029514200,6.08551416015625,0.6370258377753197,-1.3370815476983784,-1.1030744927726686
1683691149039485200,6.095485107421875,0.6190288471832871,-1.4164035062164066,-1.1203607047468422
1683691149049456400,6.105456298828125,0.6055269760534167,-1.3053355793476105,-1.0763654956758022
1683691149059427300,6.11542724609375,0.489914683753252,-1.109997131642699,-1.0090867339119314
1683691149069397200,6.125397216796875,0.17485855425596236,-0.6216179868936539,-0.8272825983017682
1683691149079368400,6.135368408203125,-0.3525765895962715,-0.005405073913931847,-0.27281799322664735
1683691149089339100,6.145339111328125,-0.5372577419474721,0.6754203042298556,0.6032831426493823
1683691149099310000,6.15531005859375,-0.8845547837056219,1.3258581428945064,1.9177206046022475
1683691149109280300,6.1652802734375,-0.5349709461845458,1.9789654930293559,3.622141865134239
1683691149119251200,6.175251220703125,1.1934534134864807,2.6609435483396053,5.212419006222486
1683691149129222100,6.18522216796875,3.7986604615569113,3.156891667038202,6.617305093124508
1683691149139193300,6.195193359375,5.55654340929389,3.442038980484009,7.6034665862619875
1683691149149163300,6.205163330078125,4.508237302410603,3.1105133622229095,7.454702258205414
1683691149159134200,6.21513427734375,3.448465214139223,2.6963474546760318,6.182272338637709
1683691149169105400,6.22510546875,3.0532477526903152,2.874214543098211,4.1491997001066805
1683691149179076000,6.235076171875,1.5633680913746355,3.4129069940239187,1.6582118825428187
1683691149189046300,6.24504638671875,-1.2353040117442606,4.114255520236492,-0.7339712773978709
1683691149199017200,6.255017333984375,-4.077171113467216,4.467401434153318,-2.5443340616956354
1683691149208988200,6.26498828125,-5.816611226540804,3.67381944540143,-3.810117090594768
1683691149218959400,6.27495947265625,-4.549778104066848,1.3814087652027607,-4.49381568608731
1683691149228930300,6.284930419921875,-1.060381233145669,-0.9681512046724557,-3.878875277261436
1683691149238900200,6.294900146484375,0.6510497600179165,-1.9935697724431751,-2.3771596322014927
1683691149248871400,6.304871337890625,-0.09537307573929428,-2.5229811848044394,-1.9433108268022536
1683691149258842000,6.314842041015625,-1.4273603690385817,-2.6789304559290406,-2.355954054826498
1683691149268813000,6.32481298828125,-2.4617396573781964,-2.0516753399312493,-2.4423583728209137
1683691149278783200,6.334783203125,-3.061993369203806,-0.8552291743695736,-1.8611153586745262
1683691149288754200,6.344754150390625,-3.2429251058936117,0.15057751495838165,-1.255225686788559
1683691149298725000,6.35472509765625,-3.2009181480303406,0.9312088367223739,-0.942568435126543
1683691149308696300,6.3646962890625,-3.2920962562978264,1.5825561914473771,-1.1285466415509582
1683691149318666200,6.374666259765625,-3.046131783205271,1.8605927961051463,-1.7194915500223635
1683691149328637400,6.384637451171875,-2.3419667382672427,1.5456225913256405,-2.343340949229896
1683691149338608400,6.3946083984375,-1.8087655782341956,0.7981628868013619,-2.5816023005992172
1683691149348579000,6.4045791015625,-1.5640005440592766,0.005123918884992599,-2.2584730470225214
1683691149358549200,6.41454931640625,-1.367034202891588,-0.6872936973750591,-1.657539243978262
1683691149368520200,6.424520263671875,-1.1036194133043289,-1.113005665808916,-1.0814897068217395
1683691149378491100,6.4344912109375,-0.692214275707677,-1.2152730311065911,-0.6197133223161101
1683691149388462300,6.44446240234375,-0.24152809808030723,-1.001845969003439,-0.2733820568501949
1683691149398432300,6.454432373046875,-0.13559855701327322,-0.5766396120041608,0.06314180808961391
1683691149408403200,6.4644033203125,-0.21904840911626813,-0.14445172555446623,0.33450200372338296
1683691149418374400,6.47437451171875,-0.2847684701960534,0.09410743971765041,0.44715369265228505
1683691149428345000,6.484344970703125,-0.2618318312447518,0.06662029785513877,0.38580812032967804
1683691149438315300,6.494315185546875,-0.14807696684692054,-0.2130593978345394,0.21555033786743877
1683691149448286200,6.5042861328125,-0.007008490522578358,-0.6017033261120319,0.0289613060683012
1683691149458257200,6.514257080078125,0.028389059138298034,-0.838653887143731,-0.1639353014424443
1683691149468228400,6.524228271484375,-0.05199556017518043,-0.8415601299792528,-0.3708633569151163
1683691149478198300,6.5341982421875,-0.20304887595176696,-0.6938683995902538,-0.5063707285135984
1683691149488169200,6.544169189453125,-0.3513911792039871,-0.5375736760288476,-0.5883563532829285
1683691149498140400,6.554140380859375,-0.49931142111923543,-0.45889235350191593,-0.6381748616799712
1683691149508111400,6.564111328125,-0.5497884299576282,-0.46888124807476994,-0.6346311977237462
1683691149518082000,6.57408203125,-0.6106009548494592,-0.5397837532937526,-0.598791822579503
1683691149528052200,6.58405224609375,-0.6362614292740821,-0.5380570756316184,-0.4789756488487124
1683691149538023200,6.594023193359375,-0.6961176398217678,-0.4714379468202591,-0.2850333316773176
1683691149547994000,6.603994140625,-0.6764741971969604,-0.35166765805780886,-0.16540157460272312
1683691149557965300,6.61396533203125,-0.6134580613136291,-0.15127894122600555,-0.13477905732393264
1683691149567935200,6.623935302734375,-0.7015981170594692,0.03944470615983009,-0.20252485207766294
1683691149577906200,6.63390625,-0.8325812892317771,0.15620587623417376,-0.3763356508463621
1683691149587877400,6.64387744140625,-0.9965946243464946,0.1795744768619537,-0.6507350680455565
1683691149597848000,6.65384814453125,-1.18498719843626,0.10912088445425033,-0.9279097951769828
1683691149607818200,6.663818359375,-1.3897124831676482,0.022284312522411344,-1.1370859218373894
1683691149617789200,6.6737890625,-1.751356176316738,-0.16674246781766414,-1.2170549460873008
1683691149627760000,6.683760009765625,-1.9631191045999525,-0.36219080563783645,-1.0064218986168503
1683691149637731300,6.6937314453125,-1.958724669033289,-0.46761342009603973,-0.6092486269250512
1683691149647701200,6.703701171875,-1.8515595948219299,-0.44207624325752254,-0.014275778111815452
1683691149657672200,6.713672119140625,-1.690420938360691,-0.3246943109363317,0.644920828808844
1683691149667643400,6.723643310546875,-1.51266900075078,-0.12728957835137844,1.1927075635552407
1683691149677614300,6.7336142578125,-1.3986451466858387,0.07608136916160584,1.5482847962722182
1683691149687584300,6.743584228515625,-1.3515256681144237,0.2841255691826343,1.7146446945130824
1683691149697555200,6.75355517578125,-1.2517279078006744,0.4419909030616283,1.74276399679929
1683691149707526100,6.763526123046875,-1.1937550267815589,0.5526829823553562,1.76451478696689
1683691149717497300,6.773497314453125,-1.194304404292628,0.5626479115307331,1.8899173825278877
1683691149727467300,6.78346728515625,-1.1761855408865958,0.510144401833415,2.043737971060723
1683691149737438200,6.793438232421875,-1.2843255245447158,0.4343628924012184,2.1492615616753694
1683691149747409400,6.803409423828125,-1.4513142222084103,0.36576281890571116,2.3369625002391636
1683691149757380400,6.81338037109375,-1.3292787649929523,0.39695173789560795,2.7075176679879425
1683691149767351000,6.82335107421875,-0.9921300461530684,0.5094581731349229,3.0691441177412866
1683691149777321200,6.8333212890625,-0.8926397443532943,0.658492550304532,3.3191888458847996
1683691149787292200,6.843292236328125,-0.9113772511143237,0.7828694560796022,3.4906744165763257
1683691149797263000,6.85326318359375,-1.0682547429997473,0.8099480171412229,3.5316245588630437
1683691149807234300,6.863234375,-1.2516940055310726,0.8065566211372613,3.4451758172050115
1683691149817204200,6.873204345703125,-1.37262573928833,0.7676075895398855,3.163509039351344
1683691149827175200,6.883175048828125,-1.4783447063446045,0.6251163504034281,2.754778308595717
1683691149837146400,6.893146484375,-1.618323670399189,0.3513724745035171,2.291163602747023
1683691149847117300,6.903117431640625,-1.8220495688296854,-0.10348960056900977,1.7957821780204772
1683691149857087200,6.913087158203125,-1.8911539385855196,-0.39174773951172825,1.5919406903862952
1683691149867058200,6.92305810546875,-2.1422097434677183,-0.5596154119670391,1.1439917557030916
1683691149877029000,6.933029052734375,-2.171745488423109,-0.37045419159233567,0.593627863945067
1683691149887000300,6.943000244140625,-1.8321394395589827,-0.006380056425929069,0.22497984499186277
1683691149896970200,6.95297021484375,-1.3295020523548124,0.46472179030776023,0.05145633873194456
1683691149906940700,6.962940673828125,-0.8161012790739536,0.832225315400958,-0.12035627195686101
1683691149916911600,6.97291162109375,-0.34223186732307076,0.991360815346241,-0.3375587609454989
1683691149926882800,6.9828828125,0.1960566789768636,0.9384697676360607,-0.6089508130222558
1683691149936852700,6.992852783203125,0.4343488638758659,0.6006470950573682,-1.2771850051403044
1683691149946823700,7.00282373046875,0.833237268922478,0.5730389571636915,-1.805038374404609
1683691149956794600,7.012794677734375,0.8688670929692686,0.6584691694289445,-2.4832392492637037
1683691149966765600,7.022765625,0.8206604036830365,0.8210387354761362,-2.7226629224106667
1683691149976735500,7.032735595703125,0.8981425795532763,0.6724947721719742,-2.5526646676674485
1683691149986706700,7.042706787109375,1.1794400857031344,0.3680716803699732,-2.0569234697178005
1683691149996677600,7.052677734375,1.7734921664096415,0.1804512596964836,-1.4562147076010703
1683691150006648800,7.06264892578125,2.275413952690363,0.4311071054756641,-0.809300659148395
1683691150016619800,7.072619873046875,2.530269003725052,1.0899807640522718,-0.3324740050271153
1683691150026589700,7.082589599609375,2.8139748861908913,1.7758821302860974,-0.39787732830792666
1683691150036561000,7.092560791015625,3.0505262187719344,2.2369120803385973,-0.8685878376364707
1683691150046531600,7.102531494140625,2.847629318511486,2.301109534960985,-1.4186623910591005
1683691150056502800,7.112502685546875,2.3162566890798506,1.8713386465251445,-1.8388278312817214
1683691150066472700,7.12247265625,1.8077170920945702,1.0447907922387123,-1.853122314094007
1683691150076443600,7.132443603515625,1.2903915465854108,0.07927578128874302,-1.4443360537588597
1683691150086414800,7.142414794921875,0.9308568084143102,-0.7773428016126155,-0.7843649553343653
1683691150096385800,7.1523857421875,0.8859551520228386,-1.4502730425924062,-0.07114274371564387
1683691150106355700,7.162355712890625,1.0787971067368984,-1.9280489602625368,0.5990238777697086
1683691150116327000,7.172326904296875,1.3217830024100838,-2.316357957497239,1.1185261827960609
1683691150126297600,7.182297607421875,1.3847684508942066,-2.5002263321608305,1.411005738826096
1683691150136268500,7.1922685546875,1.1599708306014538,-2.8863953947573897,1.6296908675879238
1683691150146238700,7.20223876953125,0.8071547331608832,-3.1014667169362307,1.570221318270266
1683691150156209700,7.212209716796875,0.5126477629564702,-3.1237568746775386,1.3115817802608012
1683691150166180600,7.2221806640625,0.11721753553971648,-2.982733954527974,0.9808613409027457
1683691150176151800,7.23215185546875,-0.27595307638198135,-2.8913135619372126,0.5840946041852235
1683691150186121700,7.242121826171875,-0.559707912556082,-2.870585246685147,0.277341315869987
1683691150196092700,7.2520927734375,-0.6593770780541003,-2.908171173235774,0.0020730068817734716
1683691150206063900,7.26206396484375,-0.950859147479385,-3.0091999366492033,-0.13597820398062466
1683691150216034600,7.27203466796875,-1.2415899601459501,-3.01239493329823,-0.06018938802480697
1683691150226004500,7.28200439453125,-1.5570295360028743,-3.0043016432136294,0.12817600579708813
1683691150235975700,7.2919755859375,-1.9126010696314275,-3.00592369145751,0.4051622246190905
1683691150245946600,7.301946533203125,-2.2083529253304004,-2.8165725014686585,0.8544216573789716
1683691150255917800,7.311917724609375,-2.3063702319681645,-2.3934026187330484,1.4773822910532355
1683691150265887700,7.3218876953125,-2.168556336992979,-1.5815052210897207,1.9970406634241342
1683691150275858700,7.331858642578125,-1.8163281224429606,-0.24583938540816305,2.4349156555995344
1683691150285830000,7.341829833984375,-1.3102584227025509,1.0655378121912478,2.7110741914257406
1683691150295800600,7.351800537109375,-0.578511835616827,2.1387024659991263,2.8098315027758476
1683691150305771500,7.361771484375,0.14153379228115082,2.83613294198513,2.7812694251582024
1683691150315741700,7.37174169921875,0.8020143015325069,3.275935979613662,2.523498778937757
1683691150325712600,7.381712646484375,1.164936928576231,3.4676907236129044,1.779661356563866
1683691150335683600,7.39168359375,1.562504168021679,3.688829383006692,0.9022200581252574
1683691150345654800,7.40165478515625,1.8073907827496527,3.944420931622386,-0.006606850919127464
1683691150355624700,7.411624755859375,1.3249778529286385,3.9856308938890694,-0.6765338184297084
1683691150365596000,7.421595947265625,0.4124672869354486,3.458012210163474,-1.0333724493846297
1683691150375566800,7.43156689453125,-0.0342114816814661,2.838627096888423,-1.1174392643421889
1683691150385537500,7.44153759765625,1.3684516684740782,2.9544705675959584,-0.8926263003498315
1683691150395507700,7.4515078125,3.652323068386316,3.679485216078162,-0.47939723526164885
1683691150405478700,7.461478759765625,3.433717142340541,3.842456933185458,0.16715645544603466
1683691150415449600,7.47144970703125,1.0291203448981046,2.981743189924955,1.14874128831774
1683691150425420800,7.4814208984375,-0.6009867022752762,1.6707517767727373,1.9674138791844247
1683691150435390700,7.491390625,-0.8196902434766292,0.48152562559247014,2.2020734066694976
1683691150445361700,7.501361572265625,-0.24976971059441566,-0.4048918832451105,1.6849110888980328
1683691150455332900,7.511332763671875,0.24072423435151574,-0.9799550397127866,0.4967579737767577
1683691150465303600,7.521303466796875,-0.040395727840927424,-1.1584528272539376,-0.958956090825796
1683691150475273700,7.531273681640625,-0.7966367001473903,-1.0570534769624471,-2.339905421823263
1683691150485244700,7.54124462890625,-1.076252098429203,-0.7971113319218158,-3.5950668112039565
1683691150495215600,7.551215576171875,-0.5929647238612175,-0.7003934174448251,-4.621227429513633
1683691150505186800,7.561186767578125,0.038951369684934616,-0.8146113327771425,-5.183488679814339
1683691150515156700,7.57115673828125,-0.020543606334924698,-1.0764204407334328,-4.995440973639488
1683691150525127700,7.581127685546875,-0.33975568646788595,-1.0271861619651317,-3.648686465449631
1683691150535099000,7.591098876953125,-0.37520226290225983,-0.7153840658277273,-2.007348999209702
1683691150545069600,7.601069580078125,-0.11193124743355437,-0.2955477114289999,-0.6677671591281891
1683691150555040500,7.61104052734375,0.15911151628149672,0.1268336512774229,0.5591268977977335
1683691150565010700,7.6210107421875,0.3345709773063659,0.40867373987138267,1.578836732532829
1683691150574981600,7.630981689453125,0.36460371199846264,0.3262801188230514,2.11765792440474
1683691150584952600,7.64095263671875,0.38618426016569135,-0.10602993270158767,1.9972941997937856
1683691150594923800,7.650923828125,0.3175029381275177,-0.6326917540937662,1.2620340516291557
1683691150604893700,7.660893798828125,0.20525836869478226,-0.9379799382925033,0.44628260890617966
1683691150614864600,7.67086474609375,0.10244217387530952,-0.935768691983819,-0.03543079434335231
1683691150624835800,7.6808359375,0.13765611059758812,-0.744801298969984,-0.10259411303400992
1683691150634806500,7.690806640625,0.3729272306423634,-0.5502133773714304,0.17169249144047496
1683691150644776700,7.700776611328125,0.7629729154765605,-0.41554596372842784,0.5655357419267296
1683691150654747600,7.71074755859375,1.0746750583708287,-0.3019213381141424,0.9322785117805004
1683691150664718600,7.720718505859375,1.230004736292362,-0.21029519381821155,1.1059721139103174
1683691150674689800,7.730689697265625,1.1225555844426154,-0.16282792472243307,1.0182279256142674
1683691150684659700,7.74065966796875,0.8752724299669266,-0.030731238350272177,0.7834510553598404
1683691150694630700,7.750630615234375,0.6210252816975116,0.2118096900343895,0.5397685557246208
1683691150704601900,7.760601806640625,0.382495927041769,0.5265326420545577,0.4106004701502621
1683691150714572500,7.770572509765625,0.29620296046733857,0.7597954544842243,0.37543753296285864
1683691150724543700,7.780543701171875,0.19476393575258552,0.8136848655819893,0.3304607655085623
1683691150734513700,7.790513671875,0.10522679962515831,0.7135550968348979,0.2432122517749667
1683691150744484600,7.800484619140625,0.05767009868025779,0.5132365226298571,0.11055018660500646
1683691150754455800,7.810455810546875,-0.12386252651214599,0.29816695401668547,-0.05136880657896399
1683691150764426800,7.8204267578125,-0.3884299932658672,0.056196518996357914,-0.1912431412152946
1683691150774396700,7.830396728515625,-0.5785808822650462,-0.08057575797140598,-0.279901083355397
1683691150784367900,7.840367919921875,-0.7595265744149684,-0.12462357401251792,-0.22912542036399244
1683691150794338800,7.8503388671875,-1.0836451312899589,-0.19290566760003566,-0.17271686605215072
1683691150804309500,7.8603095703125,-1.1648830064319073,-0.25894144356548787,-0.2375650396682322
1683691150814279700,7.87027978515625,-1.4132077789150177,-0.30661095723509785,-0.35628508872538805
1683691150824250600,7.880250732421875,-1.4881997454047202,-0.3832756792426109,-0.3553101062133908
1683691150834221600,7.8902216796875,-1.6621908691763876,-0.49512335831224913,-0.3994558296710253
1683691150844192800,7.90019287109375,-1.8928337083660065,-0.6230524036109447,-0.3893606982447207
1683691150854162700,7.91016259765625,-1.9410158477328716,-0.5972872632354498,-0.24917612861543892
1683691150864133600,7.920133544921875,-2.0075345849096773,-0.5987777940541505,-0.1650301109418273
1683691150874104800,7.930104736328125,-2.3496374190256,-0.5253390483558178,-0.22303820940479635
1683691150884075500,7.940075439453125,-2.169876187419891,-0.2833528312444687,-0.045819063497334715
1683691150894046700,7.950046630859375,-1.5864942615486681,0.15007950230836867,0.2390725216217339
1683691150904016600,7.9600166015625,-1.2049459906205535,0.5273462965250015,0.4476500978671014
1683691150913992000,7.969991943359375,-1.9180280631162225,0.7457821267008781,0.5431076370194554
1683691150923963100,7.979963134765625,-2.831700220234692,0.7144587676763534,0.4727436225913465
1683691150933934000,7.98993408203125,-3.3184695916995404,0.6248118144989013,0.4833562020204961
1683691150943904000,7.999904052734375,-3.4513363856613632,0.5242863244324922,0.5186971261233091
1683691150953875000,8.009875,-3.6219662163063884,0.22777999710440636,0.46800621880590915
1683691150963846000,8.019845947265624,-3.779859899497032,-0.22764321898221967,0.2835764108672738
1683691150973816800,8.02981689453125,-3.9175466609612104,-0.5399819062143564,0.11557941294386982
1683691150983787000,8.039787109375,-3.8670907314434646,-0.6360463252186774,-0.1950521781094372
1683691150993758000,8.049758056640625,-3.7371807414606213,-0.4945692315608263,-0.44295463352724906
1683691151003729000,8.05972900390625,-3.4198642658159133,-0.25410920110344887,-0.5492239279426634
1683691151013700000,8.0697001953125,-3.249473796884715,-0.19378186591267585,-0.7427113409534096
1683691151023670800,8.0796708984375,-2.5600857575789093,-0.04351590112149715,-0.6735672237090766
1683691151033641000,8.089640869140625,-1.6267007458612321,0.15294775122106075,-0.45545580318197604
1683691151043612000,8.09961181640625,-1.0639072883799672,0.44463586461246013,-0.29075112480223175
1683691151053582800,8.109582763671876,-0.5717708369240164,0.7981038500905037,-0.1950762896373868
1683691151063554000,8.119553955078125,-0.47102556662708517,1.1644506063640117,-0.2397286474429071
1683691151073524000,8.12952392578125,-0.6496519489839673,1.4263017998963594,-0.4557002794623375
1683691151083495000,8.139494873046875,-0.4681377362310886,1.690167255860567,-0.6417549121238291
1683691151093466000,8.149466064453126,-0.38798809471726414,1.8896113853186367,-0.5706506007224321
1683691151103437000,8.15943701171875,-0.018064064478874205,1.7081430575340986,-0.13455913096293806
1683691151113407000,8.169406982421876,0.8820110905721783,1.305606797504425,0.7815348464749753
1683691151123379000,8.17937890625,2.7529855799600482,0.9339607657790183,1.980558022917807
1683691151133350000,8.189349853515624,5.34329813349843,0.964463456070423,3.1638188359528776
1683691151143319800,8.19931982421875,6.941853273588419,1.4453075291395185,3.9777173442855474
1683691151153291000,8.209291015625,7.196936288160085,2.1287936509251595,4.1293718408256765
1683691151163262000,8.219261962890625,6.363894395679235,2.999680997675657,3.590139876195788
1683691151173233200,8.229233154296875,4.88887152723372,3.7149896601796146,2.654078923267126
1683691151183203000,8.239203125,3.151386639881134,3.8500031107813117,1.4385887422785162
1683691151193173800,8.249173828125,1.637245813012123,3.431465564021468,0.33930735817849633
1683691151203145000,8.25914501953125,1.5383026237010955,2.7175796277970075,0.20180910502374172
1683691151213116000,8.269115966796875,2.7414307512447236,1.504069514709711,0.9089058194994926
1683691151223086800,8.2790869140625,3.9041538031637666,0.3969891472965479,1.7012199802726506
1683691151233057000,8.28905712890625,3.930329570166766,-0.4791875380337238,1.987055568243563
1683691151243028000,8.299028076171876,3.199650612312555,-0.9385106841683387,1.7359984481871127
1683691151252999200,8.308999267578125,2.211260629470646,-1.2639105130255222,1.117125668348372
1683691151262969900,8.318969970703124,0.24797785874158143,-1.771399431914091,0.5244622655212879
1683691151272940000,8.32893994140625,-1.9076967848464845,-2.416484803634882,0.08963438595682383
1683691151282911000,8.338910888671874,-3.1318156779706476,-3.020736645185947,-0.14682897607982157
1683691151292882000,8.3488818359375,-2.889571394445002,-3.2129864792257545,-0.295692965118587
1683691151302852900,8.358852783203124,-0.7676525977253913,-2.670624399876594,-0.2643970786228776
1683691151312823000,8.368822998046875,2.077745016211271,-1.8384066832602024,0.24186580560207366
1683691151322794000,8.3787939453125,3.3976275918275114,-1.4803011011093854,1.2998416581064463
1683691151332765000,8.388764892578125,2.2765537703752514,-1.6796195583611726,2.490972766125202
1683691151342736100,8.398736083984375,0.9510990937151014,-1.7240853075534104,3.624228316019475
1683691151352706800,8.408706787109375,1.265316872692108,-1.3182149346649645,4.673206038554013
1683691151362676700,8.4186767578125,2.308367104873806,-1.0631137999147175,5.301906969445944
1683691151372648000,8.42864794921875,3.276923237085342,-1.5184218651890753,5.384153875499964
1683691151382619000,8.438618896484375,3.6506899142265317,-2.2917016551464795,4.996367440834641
1683691151392590000,8.448590087890626,3.3222575858056542,-2.5313924547970292,4.333569302290678
1683691151402560000,8.45856005859375,2.666644974851608,-2.0248305876255035,3.077432930397987
1683691151412531000,8.468531005859376,1.9569734414517879,-1.2096791566222906,1.3063041321188211
1683691151422502100,8.478502197265625,1.192474777712673,-0.2688596109896898,-0.6551072917804122
1683691151432472800,8.488472900390626,0.1747813243012875,0.5630015472739934,-2.5600050935581327
1683691151442443000,8.498443115234375,-0.7419570154547691,1.2079583241790532,-4.181262771582603
1683691151452414000,8.5084140625,-0.9564017301678657,1.7225076829731463,-5.707376944839954
1683691151462385000,8.518385009765625,-0.575278333588317,1.8269237507373093,-6.87032883707881
1683691151472355800,8.52835595703125,0.4755109684128314,1.3731792815178632,-7.712869794788956
1683691151482327000,8.5383271484375,1.2855471752941607,0.46466742977201936,-7.518002471727132
1683691151492297000,8.548296875,1.7663643603563308,-0.36118659703135486,-6.8788049890011544
1683691151502268000,8.558267822265625,1.7512065387129783,-0.8576935186564922,-5.87829348347187
1683691151512239000,8.568239013671874,1.3055074287831783,-1.0378975255936385,-5.383644756934046
1683691151522209800,8.578209716796875,0.36284422804526983,-1.389763336572051,-4.807990064314008
1683691151532180000,8.588179931640624,-0.3272784091453999,-2.158061830985546,-4.021974711424112
1683691151542151000,8.59815087890625,-1.1717395212631672,-3.3937674092680212,-2.6743092258691785
1683691151552121900,8.608121826171875,-1.9647288778841494,-4.5709307822108265,-0.7388689863115548
1683691151562093000,8.618093017578126,-1.171033491885662,-5.280238158473372,1.7826128998458384
1683691151572063000,8.62806298828125,0.9179483731329441,-4.694447856286168,4.810197218969464
1683691151582034000,8.638033935546876,3.9206034181833265,-3.1573113537549973,7.214484219810366
1683691151592005000,8.648005126953125,7.169911503112315,-1.8020161039739846,7.923273709678649
1683691151601975800,8.657975830078126,9.694614689403771,-0.9296674524992704,7.010380866369605
1683691151611946000,8.667946044921875,9.867096577656268,0.16107669714093206,5.068418531566858
1683691151621917000,8.6779169921875,6.601821692788601,1.7353385229736566,2.9562521903157233
1683691151631888000,8.687887939453125,3.047007396996021,3.617497838720679,1.4047738586992025
1683691151641859000,8.697859130859374,1.5001498570479452,4.927086399337649,0.42766777867674827
1683691151651830000,8.707830078125,0.22515330186262725,5.4915942595213645,-0.5438005877196789
1683691151661800000,8.717800048828124,-0.46202699826583266,5.413673984494805,-1.4586609317094086
1683691151671771100,8.727771240234375,0.13103095683678984,4.849157356482744,-1.014383963537216
1683691151681742000,8.7377421875,0.9230208540916442,3.7596196600228544,0.19288287124633788
1683691151691712800,8.747712646484375,1.3442542158067226,2.09106334746778,1.112000288158655
1683691151701683000,8.757682861328124,1.2184501998379826,0.18865911607146263,1.4703545843735337
1683691151711654000,8.76765380859375,0.9561012859165668,-1.3119880229741334,1.5405387121900915
1683691151721624800,8.777624755859375,0.9010475072145462,-2.2406822465270757,1.4314882626235483
1683691151731596000,8.787595947265626,0.9612567689836025,-2.6479472886443136,1.263869888754189
1683691151741566000,8.79756591796875,1.081763263066113,-2.790878672763705,0.9993573670580983
1683691151751537000,8.807536865234376,0.9330652782440185,-2.712884163457155,1.0002835419923066
1683691151761508000,8.817508056640625,0.6834682938680052,-2.338956742796302,1.0604799442797899
1683691151771478800,8.827478759765626,0.2530684598788619,-1.754451804244518,0.9749667299062013
1683691151781450000,8.837449951171875,-0.07651888379603623,-1.3135726618170738,0.7399979903414845
1683691151791420000,8.847419921875,-0.3720657184422016,-1.0579857893764972,0.48702159266024825
1683691151801390800,8.857390869140625,-0.36275954543650146,-1.026497595179081,0.2885863479837775
1683691151811362000,8.867362060546874,-0.29917145488411184,-1.304042032405734,-0.004899754740297794
1683691151821333000,8.8773330078125,-0.5539408734619617,-1.549159533280134,-0.4875976389825344
1683691151831303000,8.887302978515624,-0.9168567785039543,-1.7294149781435728,-1.140533431942761
1683691151841274000,8.897274169921875,-0.8986088818907737,-1.9943524472534655,-1.7938941723167896
1683691151851244800,8.907244873046874,-0.7508920170605182,-2.295140981945395,-2.0730065895125267
1683691151861216000,8.917216064453125,-0.3639896717533469,-2.694047361040115,-2.5002263321608305
1683691151871186000,8.92718603515625,0.8044666631206869,-2.7843302740335463,-3.277624663352966
1683691151881156900,8.937156982421875,2.0074027752235533,-2.3716408687800166,-4.1516158213377
1683691151891128000,8.947128173828125,2.8937963186636564,-1.5975544386148453,-4.658847550594807
1683691151901099000,8.95709912109375,3.437320135268569,-0.6372574545741081,-4.389098589549959
1683691151911065900,8.96706591796875,3.1970021436303853,0.0970797335267067,-3.2675863766804336
1683691151921035800,8.977035888671875,2.64579098739326,0.7606465183556079,-1.5551842003971337
1683691151931006700,8.9870068359375,1.9642668133303522,1.5533026244342327,-0.0231359609156847
1683691151940978000,8.99697802734375,0.7208356092318892,2.3611732507795096,0.9837259365536272
1683691151950948600,9.006948486328126,-0.9215057733535766,2.737181569367647,1.4181917048074304
1683691151960918800,9.016918701171875,-1.9739780600056052,2.907911645516753,1.7834078496158121
1683691151970889700,9.0268896484375,-2.0531097566485403,3.3237995545506474,1.9544811862446367
1683691151980860700,9.036860595703125,-1.3934768041372299,3.7797920949578283,1.2320062853731215
1683691151990831600,9.04683154296875,-0.6946852689310908,3.820858264839649,-0.27416677748709917
1683691152000801800,9.0568017578125,-0.34820115099102256,3.6231425666093826,-1.7437774116255342
1683691152010772700,9.066772705078124,-0.06520663166493176,2.9674679963350292,-2.4661025287628173
1683691152020743700,9.07674365234375,-0.017410569006204604,1.9470336467176674,-1.7190920293107628
1683691152030714600,9.086714599609374,-0.3514367719113827,0.7437269477367401,0.19096812366619706
1683691152040685600,9.096685546875,-0.7417150233924389,-0.5395674801945686,1.7426517685964702
1683691152050655500,9.106655517578124,-1.6142095130786298,-1.6536498353242872,2.558691380611062
1683691152060626700,9.116626708984375,-2.6856223547831175,-2.4913398458719254,2.9808886189222332
1683691152070597600,9.12659765625,-3.4182474782690404,-2.7284412135511635,3.083150139001012
1683691152080568800,9.13656884765625,-3.783161571390927,-2.1352420964121817,2.7406232342541217
1683691152090538800,9.146538818359375,-3.9669396374225614,-0.5723083048015832,1.3079872629001736
1683691152100509700,9.156509765625,-4.020679703177511,0.8550690153717995,-0.8961648497395217
1683691152110481000,9.16648095703125,-4.01553357246071,1.7962515490978954,-2.605761759343743
1683691152120451600,9.17645166015625,-3.677428283548355,2.4347253937244413,-3.445688442902267
1683691152130421800,9.186421875,-2.7211995718598363,2.541557290458679,-3.7033883619740604
1683691152140392700,9.196392822265626,-1.9452315657317638,2.186955917036533,-3.3795687880456446
1683691152150363600,9.20636376953125,-1.5609487552732229,1.6072469805896281,-2.321378416007757
1683691152160334600,9.21633447265625,-1.2036550740271805,0.9345359353184699,-1.113981232842803
1683691152170304800,9.2263046875,-0.7109799856498837,0.4933616093367338,0.13991656634286045
1683691152180275700,9.236275634765626,-0.35397242786884303,0.34484394951760766,1.4612714064687489
1683691152190247000,9.246246826171875,-0.17891659747511146,0.2538479198187589,2.5377327637344598
1683691152200217600,9.256217529296874,-0.01710281823128462,0.04002279830873012,2.9783985556721686
1683691152210188500,9.2661884765625,-0.06326075829416514,-0.3213146053701639,2.4851024127870796
1683691152220158700,9.27615869140625,-0.4729936518296599,-0.5535708711057901,1.2917282020166516
1683691152230129700,9.286129638671875,-1.0706900803878903,-0.571850039640069,0.11360022182539105
1683691152240100600,9.2961005859375,-1.4730021762728691,-0.5412421354085206,-0.701198450217396
1683691152250071800,9.30607177734375,-1.5147180422350763,-0.43546354711949825,-1.1759998821213842
1683691152260041700,9.316041748046874,-1.4998457595348358,-0.24222353299856184,-1.3103292959816752
1683691152270012700,9.3260126953125,-1.7599080238237976,-0.01103811136484146,-1.2156200909785926
1683691152279983900,9.33598388671875,-2.1914964830756185,0.22989771991074084,-1.117658752311766
1683691152289954600,9.34595458984375,-2.5515023458898067,0.4444973329246044,-1.0940350078791379
1683691152299924700,9.3559248046875,-2.870318412442505,0.5751210241347551,-1.0920170921854675
1683691152309895700,9.365895751953126,-3.1396707753852007,0.6472352432310581,-1.0750659573845565
1683691152319866600,9.37586669921875,-3.2424478437706825,0.9797048643440007,-1.11766985822767
1683691152329837800,9.385837890625,-3.362029624223709,1.4529858086824416,-1.3419716578274965
1683691152339808800,9.395808837890625,-3.3634529350250957,1.7766928621470928,-1.8914817092351615
1683691152349778700,9.40577880859375,-3.34984935708642,1.899516108739376,-2.589741767913103
1683691152359750000,9.41575,-3.5179181050717827,1.3248527652442454,-3.115462509062886
1683691152369720600,9.425720458984374,-3.454007942958176,-0.11659750394523143,-3.0310984647244212
1683691152379691500,9.43569140625,-2.2624214923873542,-1.3513584948539734,-2.0261378708317874
1683691152389661700,9.44566162109375,0.310674553412199,-1.5514379996061325,-0.49319209798872465
1683691152399632600,9.455632568359375,2.068261148551106,-1.1172229912430047,0.8281832004033028
1683691152409603600,9.465603515625,1.3835682813242076,-0.6553729569792747,1.1014483528755605
1683691152419574800,9.47557470703125,0.9196098766043782,0.07018705042600631,0.61090136256814
1683691152429544700,9.485544677734374,1.8363336763784288,1.1042471898138522,0.010042378325760364
1683691152439515600,9.495515625,2.1468281970486043,1.8170581902831793,-0.4950432788133621
1683691152449486800,9.50548681640625,1.120311020386219,1.7224597521781921,-0.9311609059274196
1683691152459457500,9.51545751953125,0.40831279760450123,0.8647107039421796,-1.1203230030849576
1683691152469427700,9.525427734375,0.34888094994872804,-0.01695639549791813,-0.7636445311278104
1683691152479398700,9.535398681640626,0.338138606660068,-0.3825561327964067,-0.004844225160777569
1683691152489369600,9.54536962890625,0.47075201038271186,-0.42423838874995706,0.775730397979915
1683691152499340800,9.5553408203125,0.677122139711678,-0.4114145630121231,1.3234572192326188
1683691152509310700,9.565310791015625,0.8697717867240309,-0.45171793182790276,1.4828966705605386
1683691152519281700,9.57528173828125,1.0669450486406684,-0.43557343723475933,1.3325851130619644
1683691152529252900,9.5852529296875,1.2043626377746461,-0.13854863899052142,1.0830410279169678
1683691152539223600,9.5952236328125,1.2544292757138609,0.43799101977050303,0.8018702168866991
1683691152549194800,9.60519482421875,1.2393711150527,0.9916425548970699,0.5941492574706674
1683691152559164700,9.61516455078125,1.2384651061236858,1.270682783639431,0.5053296950280666
1683691152569135600,9.625135498046875,1.187382276879251,1.1548673699826002,0.5522857997313142
1683691152579106800,9.63510693359375,1.1321358982145786,0.7818716772139072,0.8168065047338604
1683691152589077800,9.645077880859375,1.1794719421461224,0.24937691188454628,1.2947341058343649
1683691152599047700,9.655047607421874,1.2997510572135447,-0.3517313709437847,2.0043170841678974
1683691152609019000,9.665018798828125,1.3697662582039831,-0.9535387419521808,2.7019097649782893
1683691152618989800,9.67498974609375,1.3535592197686432,-1.4874673394769429,3.2402383510276676
1683691152628960500,9.68496044921875,1.2093904028087854,-1.8643430885493755,3.462914595252275
1683691152638930700,9.6949306640625,0.9077712625116109,-2.213989469912648,3.448483626578748
1683691152648901600,9.704901611328125,0.6953519161462783,-2.331642035868764,3.1255829210609196
1683691152658872600,9.71487255859375,0.4042421871647239,-2.1564532267451284,2.51285317402184
1683691152668843800,9.72484375,-0.056248249183595174,-1.7115198404908178,1.7741253497466445
1683691152678813700,9.734813720703125,-0.5701917510390281,-1.254932841321826,1.0072890368402003
1683691152688784600,9.74478466796875,-0.8639522867903113,-1.0505886648625136,0.16582067679762838
1683691152698755800,9.754755859375,-0.9117661773666739,-1.0613602342456578,-0.6861597249090671
1683691152708726500,9.7647265625,-0.8377575228258967,-1.1937047578990458,-1.4834128033891318
1683691152718697700,9.77469775390625,-0.6593947598412633,-1.4051362622708081,-2.2075188125938174
1683691152728667600,9.784667724609376,-0.916598127567768,-1.6719868715256452,-2.8194214611589907
1683691152738638600,9.794638671875,-1.7553554750859737,-1.84432321382761,-3.187896461632848
1683691152748609800,9.80460986328125,-2.3284721736609932,-1.7547370509266853,-3.2671371716082094
1683691152758580700,9.814580810546875,-2.8154280076086518,-1.4314064295589923,-3.2679221845060584
1683691152768550700,9.824550537109374,-3.108884884238243,-0.909721812057495,-2.714237916153669
1683691152778521900,9.83452197265625,-3.1034885781526564,-0.20587796189785001,-1.9422388136565685
1683691152788492800,9.844492919921874,-2.735737800300121,0.6000128888070583,-0.9262637815356254
1683691152798463700,9.854463623046875,-2.0408558397531507,1.3975140968292952,0.17780454457998274
1683691152808433700,9.86443359375,-1.155870994067192,2.1065572691977024,1.575618501138687
1683691152818404600,9.874404541015625,-0.04890694651007652,2.6018963160872457,3.1743738399758934
1683691152828375800,9.884375732421875,1.7912275834560394,2.785008319425583,4.744094222986698
1683691152838346800,9.8943466796875,4.275183748817444,2.945726704648137,5.914869940719008
1683691152848316700,9.904316650390625,5.688307502710819,3.400403486281633,5.981827507704496
1683691152858287900,9.914287841796876,4.574350235265493,4.1916029638111585,4.755846327839792
1683691152868258800,9.9242587890625,1.8574492373824119,5.071124867916107,4.027519193808734
1683691152878229500,9.9342294921875,0.15936989322304726,5.836897643244266,4.238670419934392
1683691152888199700,9.94419970703125,1.5026771835684776,6.222721253404021,4.200313801272213
1683691152898170600,9.954170654296876,3.19932444909811,4.7165825312048195,4.030293626958132
1683691152908145400,9.9641455078125,2.1844810513556,1.5286311245143414,3.5753780681326983
1683691152918116600,9.97411669921875,0.816240395283699,-0.8765162925481795,2.6710721436440945
1683691152928087600,9.984087646484374,-0.07035188559889793,-2.141886356732249,2.004200472050905
1683691152938057500,9.994057373046875,-0.26948914106488225,-2.1603198390454055,1.369718327409029
1683691152948028700,10.004028564453124,-0.583608866494894,-1.7709931892007589,0.3532224862843752
1683691152957999400,10.013999267578125,-0.7993260853618382,-1.6809341480910778,-0.9951999551177024
1683691152967970600,10.023970458984374,-0.49603813506960864,-1.449074188196659,-2.190227486053109
1683691152977940500,10.0339404296875,0.051664720785617825,-0.6084884562075138,-3.160809717264771
1683691152987911400,10.043911376953124,0.20930970817850902,0.2900496985346079,-4.358756350517273
1683691152997882600,10.053882568359375,-0.2378559854388237,0.47609074106216426,-5.525254537060857
1683691153007853600,10.063853515625,-0.23992930284785105,-0.22463643838167188,-6.645955433547496
1683691153017823500,10.073823486328125,0.5586755007684231,-0.9164350459605455,-7.210346389353274
1683691153027794700,10.083794677734375,0.7970043644160032,-0.7846107467889786,-5.456171648484468
1683691153037765400,10.093765380859375,0.8971937543958425,-0.26790333317816256,-2.3071827173948285
1683691153047736300,10.103736328125,1.4053747472018003,-0.20741233185827732,-0.38658202731162306
1683691153057706500,10.11370654296875,1.4184908338844775,-0.2245832468897104,0.9578884615942835
1683691153067677400,10.123677490234375,0.8678285437017679,-0.17173253118991852,1.8637579821377992
1683691153077648400,10.1336484375,0.1063531915728934,-0.20347849954068659,2.186034710538387
1683691153087619600,10.14361962890625,-0.2079068191106431,-0.41201252890527246,1.5787155903711914
1683691153097589500,10.153589599609376,-0.0442132540022023,-0.5529372493773699,0.545286734624207
1683691153107560400,10.163560546875,0.2214730059146881,-0.34966508606374264,-0.05029927765130996
1683691153117531600,10.17353173828125,0.4607786421725526,0.0585194089859724,-0.22684973051697013
1683691153127502300,10.18350244140625,0.33058103088736535,0.3669628423452377,0.09894611192047595
1683691153137472500,10.193472412109376,0.16194003597199916,0.42298342025279995,0.7167667523577809
1683691153147443500,10.203443359375,0.023998715224862098,0.2736141120404005,1.2138605339601636
1683691153157414400,10.213414306640624,-0.055745268097519875,0.09339023135900497,1.504250424234569
1683691153167385600,10.223385498046875,-0.0045113399446010585,-0.1035538979768753,1.4442168112933635
1683691153177356500,10.2333564453125,-0.12880929873194544,-0.3162865480750799,0.8769283804804087
1683691153187326500,10.243326416015625,-0.3722399059653282,-0.3626683600217104,0.16065934851169586
1683691153197297700,10.253297607421874,-0.22498130629658697,-0.12317629781365394,-0.48668461579084393
1683691153207268400,10.263268310546875,0.04878068978190422,0.14214286409020424,-0.9158934864297509
1683691153217239300,10.2732392578125,0.12191723766326903,0.13697802867293357,-1.2270552388370037
1683691153227209500,10.28320947265625,-0.15901570949051527,-0.19385960732400417,-1.4595157949730753
1683691153237180400,10.293180419921875,-0.7498340324401855,-0.685404522627592,-1.612086821836233
1683691153247151600,10.303151611328126,-1.364477504146099,-1.1094833369016646,-1.705496780809015
1683691153257122600,10.31312255859375,-1.8483108221590518,-1.3070862224072217,-1.720281531356275
1683691153267092500,10.323092529296876,-2.0559972947835923,-1.2506781064867973,-1.6306157273478805
1683691153277063700,10.333063720703125,-1.9382640648066995,-0.8728957639634609,-1.3944319129049778
1683691153287034600,10.34303466796875,-1.5946552100419997,-0.23317338058054446,-0.864578455864638
1683691153297005300,10.35300537109375,-1.0254992317914962,0.2903308535635471,-0.21408494148999452
1683691153306975500,10.3629755859375,-0.3520230473667383,0.5321732782900334,0.3603083528921008
1683691153316946400,10.372946533203125,0.27240937589313835,0.5236170468688011,0.8781202206134796
1683691153326917400,10.38291748046875,0.8750970734000205,0.5442816492348909,1.3772554449155925
1683691153336888600,10.392888671875,1.4010861100971699,0.5508312170088291,1.6741710836969315
1683691153346858500,10.4028583984375,1.568840969827771,0.47261166677474975,1.789683130493015
1683691153356829400,10.412829345703125,1.3046107722043991,0.40168753424584863,1.7818289098612963
1683691153366800600,10.422800537109374,1.0233785863757132,0.34713585984706874,1.7359823738351463
1683691153376771300,10.432771240234375,0.7488356690526008,0.273600083515048,1.6627113859191536
1683691153386741500,10.442741455078124,0.4064765220880508,0.18930618180334566,1.5079633072778582
1683691153396712400,10.45271240234375,0.06823419932518154,0.2511409989476204,1.188318680946529
1683691153406683400,10.462683349609375,-0.37239944390859453,0.5035229378670454,0.7581091088324785
1683691153416654600,10.472654541015626,-1.0505740518152713,0.6871604263842106,0.39002223089337346
1683691153426624500,10.48262451171875,-1.386324009773135,0.6615741497069597,0.2804122477479279
1683691153436595500,10.492595458984376,-1.4521487733364105,0.36330899601280686,0.45410877248719334
1683691153446566700,10.502566650390625,-1.4832283867329359,0.048750879165530205,0.4935688223466277
1683691153456537600,10.51253759765625,-1.409856861051917,0.11353051759004593,0.530511336427182
1683691153466507500,10.522507568359375,-1.3304045541524887,0.41727731756567954,0.6824515180408954
1683691153476478500,10.532478515625,-1.236015959405899,0.6401642819315194,0.859779092758894
1683691153486449400,10.542449462890625,-0.9802408709168433,0.7535720499247313,1.1791108537487685
1683691153496420400,10.55242041015625,-0.3112976537466049,0.654490328925848,1.7332661006137728
1683691153506391600,10.5623916015625,0.3023170411671512,0.4050789302498102,2.4703940884768962
1683691153516361500,10.572361572265624,0.16266425859332084,0.37036826687455177,3.0900042426794765
1683691153526332400,10.58233251953125,0.09883213015198707,0.41681086909770965,3.2121450599655508
1683691153536303600,10.5923037109375,0.10719893994834273,0.11585399210155009,2.6409257194444535
1683691153546274300,10.6022744140625,-0.21933599388599395,-0.4525608123928308,1.8247817702725528
1683691153556244700,10.61224462890625,-1.024558151549101,-1.130307513743639,1.2597121845528483
1683691153566215400,10.62221533203125,-1.8380185607254504,-1.8901374550193548,1.0131617282658816
1683691153576186400,10.632186279296874,-1.8253882117331026,-2.6109961528658867,0.8796335477858781
1683691153586157600,10.642157470703125,-1.0105647705752403,-3.2133857076764105,0.5270905681982636
1683691153596127500,10.65212744140625,0.29579021494798363,-3.728229080981016,-0.2078025002196431
1683691153606098400,10.662098388671875,1.8503426202476023,-4.221235301008821,-1.270061729131639
1683691153616069600,10.672069580078125,2.816936950866878,-4.507326032784581,-2.562304894933104
1683691153626040600,10.68204052734375,2.9953298167288303,-4.263363547164201,-3.990217929418385
1683691153636010500,10.692010498046875,2.3297215892001986,-3.7521056311309335,-5.4417409720718855
1683691153645981400,10.7019814453125,0.8444025137983262,-3.1363685189694164,-5.67379674679935
1683691153655952400,10.711952392578125,-0.020987989101558923,-2.667601252663135,-3.508516070476174
1683691153665923600,10.721923583984376,0.9565255026780068,-2.079121565261483,-0.2890644868895411
1683691153675893500,10.7318935546875,3.009938187795877,-0.7299731476724147,2.688423383678496
1683691153685864400,10.741864501953126,4.823633915908634,1.1016045663505791,5.192212084496021
1683691153695835600,10.751835693359375,4.593064872607589,2.221525710636377,6.601501374793052
1683691153705806600,10.761806640625,2.9347350627735254,1.6241355715483425,7.056220242002606
1683691153715776500,10.771776611328125,1.0553124785140156,-0.1837023704469204,6.905721637499332
1683691153725747700,10.781747802734374,-1.1811936513721941,-2.5306185478150844,6.0722314167290925
1683691153735718400,10.791718505859375,-2.121386589539051,-4.669360761302709,4.74946013393402
1683691153745689300,10.801689453125,-2.093715031020343,-6.1879883781969545,3.4293016639858482
1683691153755659500,10.811659423828125,-2.6328908815488217,-7.283489951497316,1.6918693836033343
1683691153765630500,10.82163037109375,-3.525017707943916,-7.951169432342052,-0.5936474454283714
1683691153775601400,10.831601318359375,-3.8873312631785866,-7.886710111913085,-2.9222862078279257
1683691153785572600,10.841572509765625,-2.8747371056675908,-6.845605899232625,-5.096311916142702
1683691153795542500,10.85154248046875,-0.3567334170147776,-4.258580989062786,-6.656794807469844
1683691153805513500,10.861513427734375,1.2654855072572826,-1.1850304530560969,-7.33074211653769
1683691153815484400,10.871484375,1.4878022705197333,0.5103934081584215,-7.810202626293897
1683691153825455400,10.881455322265625,1.5523027997419236,1.2593816374242306,-7.29577309448719
1683691153835425300,10.89142529296875,1.7708277695059775,1.360035137784481,-4.849946461033821
1683691153845396500,10.901396484375,1.8536030833482742,0.6246580852419138,-2.564172442370653
1683691153855367400,10.911367431640626,1.7141314842939377,0.09376490989029407,-0.8764993414133787
1683691153865338600,10.921338623046875,2.3752488301441073,0.1318394967406988,0.24679332513213156
1683691153875308500,10.93130859375,2.9680922657132145,0.7800713497936725,0.8852128092229365
1683691153885279500,10.941279541015625,2.691503521776199,2.0210282727330924,1.0486042130470274
1683691153895250400,10.95125048828125,1.2788321878254414,3.396177393019199,0.4854273092061281
1683691153905221400,10.961221435546875,0.1223848551750183,4.203425503551959,-0.892110752043128
1683691153915192800,10.97119287109375,0.07696516625881195,4.450247470256686,-2.7817092778801915
1683691153925162800,10.981162841796875,0.33054595957398414,4.6580584460437295,-4.180232844012975
1683691153935134000,10.991134033203124,0.9740171740964054,4.801723405134678,-4.902210316756367
1683691153945105000,11.00110498046875,2.0258146302267908,4.793039747941494,-4.933261288580298
1683691153955075800,11.011075927734375,3.029347529403865,4.8533115535527465,-4.558239642941952
1683691153965046000,11.0210458984375,2.784581033924222,5.201559174033999,-4.078023930904269
1683691153975017000,11.031016845703125,2.4723043060123917,5.717926980426907,-3.749974464321136
1683691153984987600,11.040987548828125,2.7648960902452466,6.054907941484451,-3.8428386259794234
1683691153994958800,11.050958740234375,2.916070986574888,6.490047663477063,-4.468206905317306
1683691154004928800,11.0609287109375,2.7095959355667234,6.898617942973971,-5.323660536092519
1683691154014899700,11.070899658203125,2.7382208492875098,7.178604512655735,-6.314899770885706
1683691154024871000,11.080870849609376,3.1467057885885237,7.426778478491306,-7.205629882225394
1683691154034841900,11.090841796875,3.05494491199702,7.928262019485235,-8.038162656140328
1683691154044811800,11.100811767578126,2.93719794575572,8.571597332668304,-8.79635827421248
1683691154054783000,11.110782958984375,2.6778020364210007,9.289974735093116,-9.335259983974694
1683691154064753700,11.120753662109376,2.258604272186756,9.94389340161085,-9.407958140438794
1683691154074724900,11.130724853515625,1.5579774843774734,10.336060827839374,-8.509139999711513
1683691154084694800,11.14069482421875,0.6234511936701834,10.579247652912139,-7.039715097403526
1683691154094665700,11.150665771484375,-0.20493439743742345,10.880968500018119,-4.805903905689716
1683691154104637000,11.160636962890624,-0.737837305176258,10.541545991027355,-2.976557311719656
1683691154114607900,11.17060791015625,-0.5933528463959693,9.851922389400006,-1.7981468613252043
1683691154124577800,11.180577880859374,-0.16118797549568115,9.190481510683894,-1.1361258446335791
1683691154134549000,11.190549072265625,-0.15091061937026679,7.349004333937168,-1.2205001181051134
1683691154144519700,11.200519775390624,-0.4797276362597942,3.9693712484836574,-2.302546289765835
1683691154154490600,11.21049072265625,-1.1012088450312614,0.3838596166104078,-4.2459672989442945
1683691154164460800,11.220460693359374,-1.9941712454676628,-2.770983301204443,-5.650093799650668
1683691154174431700,11.230431640625,-2.293624147641659,-5.5163709733814,-5.82014290779829
1683691154184403000,11.24040283203125,-2.3974223757684228,-7.637576945656537,-4.336772774507105
1683691154194374000,11.250373779296876,-2.0883914979100227,-9.118277859738468,-1.5888500308945774
1683691154204343800,11.26034375,-1.2332441566050052,-10.197134003186225,1.4155942356601356
1683691154214315000,11.27031494140625,-0.5971381370883435,-11.210098747575282,3.7714939299508927
1683691154224286000,11.280285888671875,-0.5491328155931084,-12.330028659689425,5.69283637831211
1683691154234256600,11.290256591796876,-0.3841127145886421,-13.114835805833339,7.566362305748462
1683691154244226800,11.300226806640625,-0.7090015982490032,-13.092745554578304,9.257042771828175
1683691154254197800,11.31019775390625,-0.6957189958930016,-11.960606149232387,10.143118335360288
1683691154264168700,11.320168701171875,-0.07704933741092682,-10.295770903027057,9.618417000386119
1683691154274140000,11.330139892578124,0.3157481303494423,-9.718847797906399,5.755840823757648
1683691154284109800,11.34010986328125,0.35612712168470023,-9.66634604177475,2.670401989297569
1683691154294080800,11.350080810546874,0.22661197623834012,-9.508482461461425,2.402911328573525
1683691154304052000,11.360052001953125,-0.5613455967605113,-8.943712735471129,4.253597939953208
1683691154314022700,11.370022705078124,-2.5931647280991075,-8.281994793379306,5.542240158653259
1683691154323992800,11.379992919921875,-4.292124362224341,-8.013522135880589,5.052265853667259
1683691154333963800,11.3899638671875,-4.5338066279530524,-8.525887720894813,3.610504618832469
1683691154343934700,11.399934814453125,-3.1658535566508768,-9.624373862963914,1.8487576891437172
1683691154353906000,11.409906005859375,-1.50034143409729,-10.41119059536457,0.5201563850209117
1683691154363875800,11.419875732421875,-0.49758821405582127,-10.491768106901645,0.10144815786927938
1683691154373846800,11.4298466796875,-0.560840496782586,-9.859691854357719,0.8763611019864678
1683691154383818000,11.43981787109375,-0.9141524149160831,-9.187637227168679,2.0441814770445226
1683691154393789000,11.449788818359375,-0.8126140214800834,-8.773571857386827,3.014834727665782
1683691154403758800,11.4597587890625,0.03889518251828849,-8.495653910672663,3.787390295001864
1683691154413729800,11.469729736328125,0.5226397262692452,-8.158416344505548,4.410732036948204
1683691154423700700,11.47970068359375,0.44740467173866927,-7.572097634530067,4.724916936568915
1683691154433671700,11.489671630859375,0.6385339773159474,-6.803099467414617,4.585044647759199
1683691154443641900,11.499641845703126,0.10775777940750121,-6.203245568561553,3.9903091148331757
1683691154453612800,11.50961279296875,-0.6900549787819386,-5.983346095573902,3.1444349210470914
1683691154463584000,11.519583984375,-0.801538500714302,-6.216857329806685,2.2691730124741794
1683691154473555000,11.529554931640625,-0.9412580831803381,-6.744206548941135,1.5011021893367171
1683691154483524900,11.53952490234375,-1.949133687736839,-7.532761649441719,0.7834899260655045
1683691154493496000,11.54949609375,-3.315599881482124,-8.577267779520154,0.049935412774980065
1683691154503466800,11.559466796875,-4.246620502156019,-9.638881111744046,-0.6335270358741283
1683691154513437700,11.569437744140625,-4.363549430012703,-10.251090049779414,-1.1518392543330789
1683691154523408000,11.579407958984374,-2.3105146382965147,-10.171067834037542,-1.418887139725685
1683691154533378800,11.58937890625,4.298296036596596,-7.741631194370985,-1.1784890685886145
1683691154543349800,11.599349853515625,13.554253643536567,-2.835183678436279,-1.2141554252535105
1683691154553321000,11.609321044921876,9.893778832876682,1.6656640982449054,-1.1239984767273068
1683691154563291000,11.619290771484375,0.7965233029007911,7.649875870737433,-0.6807748170003295
1683691154573261800,11.62926171875,-2.661086171680689,16.142817015320063,0.24646570061296222
1683691154583232800,11.639232666015625,-12.290327932941914,19.198340896248816,-0.03539280042052269
1683691154593203700,11.64920361328125,-11.81665828154683,20.589187351882458,-1.8952350704193115
1683691154603175000,11.6591748046875,6.807728880780935,24.79740125875473,-5.776432945409417
1683691154613144800,11.669144775390626,10.63903956605196,25.320553026199338,-9.511929971566795
1683691154623115800,11.67911572265625,-4.838308630210161,18.965399570858477,-12.228235341644286
1683691154633087000,11.6890869140625,-2.3952242812022564,10.205395635575055,-16.1636318398118
1683691154643057000,11.699056884765625,7.404445066130161,3.417382678133249,-17.945488368332384
1683691154653027800,11.70902783203125,6.1638441170215605,2.04149121504724,-13.573001598626375
1683691154662999000,11.7189990234375,0.9558895428620279,2.082197319445014,-7.159229365578294
1683691154672969700,11.7289697265625,0.20355857903957367,0.2681687061160803,-4.097549300107359
1683691154682939600,11.738939697265625,0.9541068972289561,-1.4685831907868385,-2.43317991784811
1683691154692910800,11.748910888671874,1.809983283460885,-1.338501935890317,-0.9129705847203731
1683691154702881800,11.7588818359375,2.4540730682730674,1.6041893465846777,0.4596265129953623
1683691154712852700,11.768852783203124,2.8428830007672308,5.84845422552526,1.3525626099467276
1683691154722823000,11.778822998046875,2.840221088081598,9.694547469386459,1.6121207241058348
1683691154732793900,11.7887939453125,2.467074296404421,12.810627233564853,1.1090478680938483
1683691154742764800,11.798764892578125,1.9680792112253604,13.535662340313195,-0.9044932637542485
1683691154752735700,11.80873583984375,1.774720977552235,10.294424164593218,-3.912158245921135
1683691154762706700,11.818706787109376,1.4976571634493767,6.111267542088031,-4.803988427457213
1683691154772676900,11.8286767578125,1.2697452105283737,3.025658904018998,-4.262926909312606
1683691154782647800,11.838647705078126,1.036458140440285,0.5936082824617624,-3.089309830674529
1683691154792618800,11.84861865234375,0.9093545861802995,-1.3669874411404133,-1.5876026611819862
1683691154802590000,11.85858984375,0.6760999570570886,-3.031962972599268,-0.07988485309779643
1683691154812560000,11.868559814453125,0.31633141013011334,-4.345787563350797,1.2603358694091438
1683691154822530800,11.87853076171875,0.003214578132331371,-5.365200168704987,2.320425645327568
1683691154832502000,11.888501953125,-0.11398308366313575,-6.108553606954216,3.0843107072129845
1683691154842472700,11.89847265625,0.016601736841350793,-6.487641186857223,3.5586584040001035
1683691154852442600,11.908442626953125,0.3653858022868633,-6.362131477659941,3.8064036230295892
1683691154862413800,11.918413818359374,0.7806311756335198,-5.598623724654317,3.9507247079417107
1683691154872384800,11.928384765625,1.2220635680295526,-4.703297517696023,3.7314042038857935
1683691154882356000,11.93835595703125,1.4821861842036246,-4.111393116542697,3.7407349268108603
1683691154892326000,11.948325927734375,1.358054777622223,-3.833212134978175,4.09641065146625
1683691154902296800,11.958296875,0.18585911008939146,-3.782869602707028,4.396441645789146
1683691154912265000,11.968264892578125,-1.8629449121892452,-3.9139474674254653,4.698050849214196
1683691154922236000,11.97823583984375,-3.51568523145318,-4.190875234058499,4.767004266192019
1683691154932205800,11.988205810546875,-4.448426684570312,-4.823799043342471,4.484323927381634
1683691154942177000,11.998177001953126,-4.248991322940587,-5.862662783619761,3.5261735999807713
1683691154952148000,12.00814794921875,-3.207491681201756,-6.806167622813582,2.411273790988326
1683691154962119000,12.018118896484374,-2.1690463124670085,-7.206104513999819,1.78310419049412
1683691154972089000,12.028089111328125,-1.5353179088018833,-7.166883095201849,1.4857339398130773
1683691154982060000,12.03806005859375,-1.5002349049828945,-6.7009367315351955,1.3663245933175086
1683691154992031000,12.048031005859375,-1.6322342684604227,-5.989023556688427,1.473987095656991
1683691155002002000,12.058001953125,-1.3554771822191773,-5.3383747056216,1.9431778480723498
1683691155011971800,12.067971923828125,-0.6787164231657982,-4.796567922067642,2.8544311074808237
1683691155021942800,12.07794287109375,-0.10596797338128089,-4.251139440885186,3.9558632398739455
1683691155031914000,12.0879140625,0.21793547943830488,-3.4762732585191727,4.970929632717371
1683691155041885000,12.097885009765625,0.6210477857902645,-2.400676993650198,5.177384517720341
1683691155051854800,12.107854736328125,1.6959690740071236,-1.0106716650158167,4.2705978823319075
1683691155061826000,12.117825927734375,3.020914047579467,0.6833370687037706,2.7867414268285033
1683691155071797000,12.127796875,4.229150896438956,2.5017267998516557,1.2463795325100422
1683691155081768000,12.137767822265625,4.703462645129859,4.170849514117837,-0.28984570039510726
1683691155091738000,12.147738037109375,3.904854060387611,5.595141143235564,-1.665677542248368
1683691155101708800,12.157708740234375,1.4510053023897111,6.1879170665264125,-2.452809916469455
1683691155111680000,12.167679931640626,-1.6536572879783809,5.583018159243464,-2.5035323879688978
1683691155121651000,12.17765087890625,-2.2742205051220954,4.56172923862338,-2.1004858403295277
1683691155131620900,12.187620849609376,-1.477068110537529,3.3838159240961074,-1.5132430012464522
1683691155141592000,12.197592041015625,-1.2002340135373175,1.6369582282423971,-0.6570405979305506
1683691155151563000,12.20756298828125,-1.0170528904855252,-0.6064835461258888,0.5391606529593468
1683691155161534000,12.217533935546875,-0.4615504667952656,-2.826131187930703,1.1113958925247192
1683691155171504000,12.227504150390626,0.12164338915795087,-4.756412437289953,0.526597523984313
1683691155181474800,12.237474853515625,0.33488749590963124,-6.07641308632791,-0.9561346036642789
1683691155191446000,12.247446044921874,0.8887737165749072,-6.966115023663639,-2.348963757547736
1683691155201417000,12.2574169921875,0.24867928500920533,-6.517044975996017,-3.2997073158234356
1683691155211387000,12.267386962890624,-0.16695640282928942,-3.442135426595807,-3.5278760199844834
1683691155221358000,12.277358154296875,0.9701710200622677,0.5204284799605607,-3.442841529038548
1683691155231329000,12.2873291015625,3.2323268472507594,3.6112013689249753,-3.6056226920098062
1683691155241300000,12.297300048828125,3.160780783431232,5.992438333567977,-3.3446909514099357
1683691155251270100,12.307270263671874,1.5864160817459225,6.957671604967117,-2.545596336716413
1683691155261240800,12.31724072265625,0.7320993460461497,6.173774559405445,-1.2758943808078764
1683691155271211800,12.327211669921875,0.6320888197645544,4.5119431711912155,-0.4295288963735103
1683691155281183000,12.337182861328126,-0.10804536417722702,3.098770317459106,-0.8044219471961259
1683691155291153000,12.34715283203125,0.2138344738602638,2.2984195652246475,-2.2081997805953026
1683691155301123800,12.357123779296876,0.7474363236486912,2.3202082031846043,-3.950233417293429
1683691155311095000,12.367094970703125,0.4317755062565207,2.676197816094756,-5.3812429564893245
1683691155321066000,12.37706591796875,0.252546920222789,3.3342414535880085,-6.674248631095886
1683691155331036000,12.387035888671875,-0.3104407446563244,4.483092924281954,-7.351081724733114
1683691155341007000,12.397007080078126,-0.16028803098127245,5.465860098806023,-7.22840928478837
1683691155350977800,12.406977783203125,0.8766191684007644,5.758057915285229,-6.808616769531369
1683691155360949000,12.416948974609374,1.1498223615527152,5.863817214351892,-6.133692724385857
1683691155370919000,12.4269189453125,1.6472876068159936,6.476300293153524,-6.029967561495304
1683691155380889900,12.436889892578124,2.1941054965302347,7.755940290230512,-7.1888698860824105
1683691155390861000,12.446861083984375,2.1506357726380227,9.451960948294401,-8.589707574376463
1683691155400831000,12.4568310546875,1.9188497547626495,10.883273854351042,-9.913024800616503
1683691155410802000,12.466802001953125,1.8306886562287807,11.384933920955657,-10.985673906117677
1683691155420773000,12.476773193359374,1.9022364736139774,10.645205102944374,-10.753097322386502
1683691155430743800,12.486743896484375,1.8111458974994719,8.81151960298717,-8.613334533679485
1683691155440714800,12.49671484375,1.4229833229981361,6.366614760553836,-5.677989522314071
1683691155450685000,12.506684814453125,1.1277565140865742,4.204798545470833,-3.326372035387158
