time,seconds_elapsed,z,y,x
1683689667531108600,0.061108642578125,0.4951537534505129,-0.2921948938697576,-0.31964462633132934
1683689667541079600,0.07107958984375,0.8477285894811153,0.2527960726782679,-0.15151099641621113
1683689667551051500,0.081051513671875,0.658100920638442,0.843083394023776,-0.08127338484674691
1683689667561022500,0.0910224609375,0.6364771178513765,0.9316694399714469,1.5517401974231004
1683689667570993400,0.100993408203125,-0.23527941294908522,0.6929229354336858,2.91479965146482
1683689667580965600,0.110965576171875,-1.5742688400954008,0.7132398934058845,2.778455536781251
1683689667590936300,0.120936279296875,-1.7957710721045732,1.0771896715402602,1.6831784198865294
1683689667600907500,0.130907470703125,-1.6723188799589872,1.459343068754673,0.0964998878121376
1683689667610879500,0.14087939453125,-1.6139286503106354,1.7785484268859029,-1.4299693824931978
1683689667620850700,0.1508505859375,-1.1839695458263158,1.915742582527548,-2.0222569377452135
1683689667630821400,0.1608212890625,-1.3655407494634388,1.7984366380520165,-1.4929624297618864
1683689667640793600,0.170793701171875,-1.2636299425184725,1.5826111365050077,-0.7692904280602931
1683689667650764500,0.1807646484375,-1.2669757458150386,1.3905872201755642,-0.8233473046794533
1683689667660735500,0.190735595703125,-0.2598223180532455,1.0374752085283399,-1.0932070326223968
1683689667670706400,0.20070654296875,0.10320435388684272,0.5332260022133588,-1.3884043231785297
1683689667680678700,0.2106787109375,-0.14249065461456775,-0.0093088033542037,-0.8170809377610683
1683689667690649600,0.220649658203125,0.09493862984478472,-0.383270856937021,-0.45443829670250413
1683689667700620300,0.230620361328125,0.6916553997159004,-0.2094727715194225,0.009976619613170623
1683689667710592500,0.240592529296875,1.2584312048316002,-0.371622943110764,-0.23891513910293577
1683689667720563500,0.2505634765625,1.9948072052836416,-0.6404392994806171,-0.9519166937083006
1683689667730534700,0.26053466796875,1.7052058350384234,-0.7027163074344396,-1.3377408883899449
1683689667740506400,0.27050634765625,1.629591498866677,-0.9794646258473396,-1.5729577574968336
1683689667750477600,0.2804775390625,1.662356288871169,-0.9740525376707315,-1.6661176872313022
1683689667760448500,0.290448486328125,1.7463479927659034,0.5164060925766826,-0.8433540276587009
1683689667770420500,0.30042041015625,1.7500445091962813,0.3636933191552758,0.7149170328378677
1683689667780391400,0.310391357421875,0.20210662666559218,-1.0369587834388017,0.35986674660444257
1683689667790362600,0.320362548828125,1.2110960376828908,-0.6507438358739018,1.5046563746869563
1683689667800333600,0.33033349609375,1.025447209343314,-1.1431640727072954,1.2506085483819245
1683689667810305500,0.340305419921875,0.39341771855056284,-0.5954281913653016,0.9939216057449579
1683689667820276500,0.3502763671875,0.2165928326576948,-0.4385296566918492,1.3930220461070537
1683689667830247400,0.360247314453125,0.6078659403949975,-0.4248784402191639,1.3446142812907695
1683689667840219400,0.370219482421875,0.05541150609850883,-0.23048224180042742,0.9852215819388628
1683689667850190300,0.3801904296875,-1.0011749378740786,-0.0350917716473341,1.408025553971529
1683689667860161500,0.39016162109375,-1.126788107445836,-0.5483072514891624,1.7707339537426827
1683689667870133500,0.400133544921875,-0.9849135389029979,-0.7892921826034783,1.2957125954777002
1683689667880104400,0.4101044921875,-0.8632675193965434,-0.8864137094452976,0.8860112661242484
1683689667890075400,0.420075439453125,-0.7551192793667316,-1.0363032421395182,0.6631362844571471
1683689667900047600,0.430047607421875,-0.5776075802534818,-0.9155617702573537,0.2026940711647272
1683689667910018600,0.4400185546875,-0.5935217732220888,-0.7234224108546972,-0.043325346985459326
1683689667919989500,0.449989501953125,-0.47553836787641046,-0.6273249663636088,-0.10236498045325279
1683689667929960400,0.45996044921875,-0.3136258044332266,-0.5329033461302518,-0.21206308027356863
1683689667939932700,0.4699326171875,-0.3577273964881897,-0.4139639552339911,-0.1742991668075323
1683689667949903600,0.479903564453125,-0.16457739873826502,-0.2065940012127161,0.049067397768795484
1683689667959874300,0.489874267578125,-0.08018646639287472,-0.09909370369762181,0.1992079826146364
1683689667969846500,0.499846435546875,-0.00043079263269901275,-0.11000117442011832,0.22523615784049034
1683689667979817500,0.5098173828125,0.2631874105721712,-0.02527121937870979,0.2359030978053808
1683689667989788400,0.519788330078125,0.381009487876296,0.15505553715527057,0.03253565742373466
1683689667999760400,0.529760498046875,0.4010907373964786,0.006188040985167026,-0.0907873553842306
1683689668009731600,0.539731689453125,0.3692243575364351,-0.12655191172659397,-0.4713888469815254
1683689668019702500,0.54970263671875,0.3793979610264301,-0.07014525711089373,-0.7782301058411598
1683689668029673500,0.559673583984375,0.3388941012024879,-0.22834143037945032,-0.5454647215396166
1683689668039645400,0.5696455078125,0.3222591927438974,0.13249796064943076,-0.8079331701874732
1683689668049616600,0.57961669921875,-0.061135144442319864,0.6445797602862119,-0.5554059775784611
1683689668059587600,0.589587646484375,-0.5607844557464122,0.5148500953063369,-0.1932961282223463
1683689668069559600,0.5995595703125,-0.699276396113634,0.45631899588257074,0.0419824079439044
1683689668079530500,0.609530517578125,-0.7922159610956907,0.29593846431225534,0.038944355422258374
1683689668089501700,0.619501708984375,-1.192432838267088,0.27455899167507886,-0.05369973374456167
1683689668099473400,0.629473388671875,-0.8331663956433534,0.8317717264145612,-0.028227438835799694
1683689668109440300,0.639440185546875,-0.3404255485534668,0.4582335973322391,-0.0034703064590692516
1683689668119411500,0.649411376953125,-0.23546529091000556,-0.36681437378525733,-0.07080313649773597
1683689668129383400,0.659383544921875,-0.12540098812580108,-0.503648610073328,-0.4030734356462955
1683689668139354400,0.669354248046875,1.7475287269830704,-0.6138590433299541,-0.5697825857162475
1683689668149325300,0.6793251953125,0.07438917829096317,-0.8541852182745933,-0.3742012691661715
1683689668159297500,0.689297607421875,-0.07382336110174656,-1.2190607329517602,0.5751674936249852
1683689668169268500,0.6992685546875,1.053232457369566,-1.2310057300284505,0.09945347692072391
1683689668179239400,0.709239501953125,0.05370294861495495,-0.17584201233536004,0.07259878774285317
1683689668189210400,0.71921044921875,0.23937691139578818,0.09333119464814663,-0.04339695091694593
1683689668199182600,0.7291826171875,0.1817752017766237,-0.12213877145946025,0.2621799870952964
1683689668209153500,0.739153564453125,0.0742524001687765,-0.18245646203905344,0.5611980049833655
1683689668219124200,0.749124267578125,-0.27836919761300083,-0.08113631446361541,0.5963230943784117
1683689668229096400,0.759096435546875,-0.27732407247424123,-0.06537468170821667,0.5400859511107206
1683689668239067400,0.7690673828125,-0.07116144841611385,-0.17459172001332043,0.37141660688370465
1683689668249038300,0.779038330078125,-0.21981939348876475,0.029884266132116317,0.0650724838912487
1683689668259009300,0.78900927734375,-0.4393377582043409,0.22029431752413509,0.012426643113791942
1683689668268981500,0.7989814453125,-0.35454292123317716,0.2297092116013169,-0.057847501073777674
1683689668278952400,0.808952392578125,-0.32234804007112977,0.3022413638487458,-0.012941606898605823
1683689668288923400,0.81892333984375,-0.09474866023063659,0.3224748813211918,-0.03623129707127809
1683689668298895400,0.828895263671875,-0.09392389984428882,0.16826397829651832,-0.05602671538740396
1683689668308866600,0.838866455078125,-0.24784488001167773,0.07187924129664898,-0.22526216906458138
1683689668318837500,0.84883740234375,-0.27695290107429027,0.21503303599506615,-0.3455003675997257
1683689668328809500,0.8588095703125,-0.2861573672711849,0.24017215342670678,-0.08954933802187443
1683689668338780400,0.868780517578125,-0.02775952906310558,-0.08566255971640348,-0.03148088767379522
1683689668348751400,0.87875146484375,0.20460545774400232,-0.07692512650936842,-0.5615946030855179
1683689668358722600,0.88872265625,0.150862177118659,0.23304507802575825,-0.4969982122734189
1683689668368694300,0.8986943359375,-0.03428805404901504,0.10104513002634048,-0.09534925647228956
1683689668378665500,0.90866552734375,0.12034312021434307,-0.04120645513534546,-0.020032149681448935
1683689668388636400,0.918636474609375,-0.3713689683496952,-0.11277414626479149,0.0538093315988779
1683689668398608400,0.9286083984375,-0.10713818620443344,-0.16210720923244953,0.016864041039347646
1683689668408579300,0.938579345703125,-0.07604629784822464,0.2515238607853651,0.05520867700278759
1683689668418550500,0.948550537109375,-0.09924597164988518,0.3521943122804165,0.050365328624844545
1683689668428522200,0.958522216796875,-0.2660761177510023,0.10695201598256826,0.055417351317405696
1683689668438493400,0.968493408203125,-0.3172363961458206,-0.03610591712594032,0.00032061025649309156
1683689668448464400,0.97846435546875,-0.17533961577117443,0.0992144074678421,0.05614098941683769
1683689668458435600,0.988435546875,-0.015433131453394889,0.11966332125663756,0.1354281688824296
1683689668468407300,0.9984072265625,0.1585913100659847,-0.05411006811112165,0.21976795556247233
1683689668478378500,1.00837841796875,0.20474282038807867,-0.20616087049245832,0.2927671407997608
1683689668488349400,1.018349365234375,0.2334071893364191,-0.17307576249241827,0.09224924463033675
1683689668498321400,1.0283212890625,0.2727425899028778,-0.06005027181506157,-0.017073007614910603
1683689668508292400,1.038292236328125,0.2052297271221876,-0.13631284276247024,0.1520326822027564
1683689668518263300,1.04826318359375,0.13336626791656017,-0.3063061290696263,0.19100714050233364
1683689668528235500,1.058235595703125,0.023593641555309294,-0.28340339238792656,0.15987667370140551
1683689668538206500,1.06820654296875,-0.02875613888502121,-0.16203648208379745,0.1825812574625015
1683689668548177400,1.078177490234375,-0.0666805036097765,-0.10955927587151527,0.1632479037001729
1683689668558148400,1.0881484375,-0.03525543777644634,-0.0865375889852643,0.1466463129892945
1683689668568120600,1.09812060546875,-0.06310673677623271,-0.10720599074363708,0.26859102318137884
1683689668578091300,1.10809130859375,-0.09284370339214801,-0.11021189456135035,0.42235242887288327
1683689668588062500,1.1180625,-0.019190438160300253,-0.08074526931941509,0.46606706743687387
1683689668598034400,1.128034423828125,0.07917115187048912,-0.11966507482230662,0.3777829270452261
1683689668608005600,1.138005615234375,-0.006337386327981948,-0.11257891595363616,0.338711145851016
1683689668617976300,1.147976318359375,-0.03459668160676956,-0.07412614344060421,0.23073241716921328
1683689668627948500,1.157948486328125,-0.06784253312647343,-0.09845949744731188,0.1214025661394
1683689668637919500,1.16791943359375,-0.03174363026320934,-0.1324301561102271,-0.0836509276330471
1683689668647890400,1.177890380859375,0.023527006059885024,-0.051476796998083586,-0.20963117695152758
1683689668657861400,1.187861328125,0.007167407411336898,-0.023792963519692418,-0.21786972072571514
1683689668667833300,1.197833251953125,-0.017196633994579314,0.024264964945614337,-0.2844669299662113
1683689668677804500,1.207804443359375,0.024690204620361325,0.05982406184375286,-0.26985446724593637
1683689668687775500,1.217775390625,-0.07753565962314606,-0.014447335286438464,-0.034006314498186106
1683689668697747500,1.22774755859375,-0.27352468019127846,-0.025166005438566206,0.05764905589222908
1683689668707718400,1.237718505859375,-0.6041384443044662,0.0037841947138309477,0.08853636158704757
1683689668717689600,1.247689697265625,-0.869544115447998,-0.010700549973547458,-0.1684077706813812
1683689668727661300,1.257661376953125,-0.5996475626260042,0.22014351087659595,-0.49949587430804965
1683689668737632500,1.267632568359375,-0.4228185850799083,0.4342793057709932,-0.44666444783061743
1683689668747603500,1.277603515625,-0.36259178765416145,0.2919081858828664,-0.17676789500862358
1683689668757574400,1.287574462890625,-0.12465104654133319,0.20907471211254597,-0.013901099580526351
1683689668767546400,1.29754638671875,0.07452069571614266,0.19132687397599218,0.19866642308384178
1683689668777517300,1.307517333984375,0.13908230747580527,-0.1263975979477167,0.23882862986326217
1683689668787488500,1.317488525390625,-0.18110826230049132,-0.2084972044855356,0.12049217329621315
1683689668797460200,1.327460205078125,-0.0408428825199604,-0.2233107427358627,-0.06263619665503502
1683689668807431400,1.337431396484375,0.09837620307803153,-0.11628770734369755,-0.294945069360733
1683689668817402400,1.34740234375,-0.18249767083227633,0.13342822723686695,-0.09314151729494333
1683689668827373600,1.35737353515625,0.03922901758253574,0.23036036898642778,0.2618865571066737
1683689668837345300,1.36734521484375,0.29170506452620026,-0.30796383314877745,0.3256327608302235
1683689668847316500,1.37731640625,0.19958967540860176,-0.8356669802874326,0.14136983389109373
1683689668857287400,1.387287353515625,-0.0793459239155054,-0.24466595771461724,0.3930792803764343
1683689668867259400,1.39725927734375,0.15057400782704353,-0.12153320678174495,-0.13545885628163815
1683689668877230300,1.407230224609375,-0.027425182542204857,-0.22140724720209837,-0.4767226092249155
1683689668887201300,1.417201171875,0.0518137738674879,-0.3684998426541686,-0.26200053887516256
1683689668897172500,1.42717236328125,0.2868371662288904,-0.2901633880421519,-0.42062721251547336
1683689668907144200,1.437144287109375,0.27684885617792604,-0.16796207274049518,-0.20184622216373682
1683689668917115400,1.447115478515625,0.3391816859722137,-0.24159634101092814,0.13834347180724144
1683689668927086300,1.45708642578125,0.5685346314817666,-0.21719518246501682,0.46937867620289325
1683689668937058600,1.46705859375,0.755001205945015,-0.2710156199797988,0.8867372423112392
1683689668947029200,1.477029296875,0.748486709484458,-0.034661855797469616,1.3596335712462664
1683689668957000400,1.48700048828125,1.0219470922678708,0.7397185888782143,-0.6467118038788437
1683689668966972400,1.496972412109375,-1.3072972348093985,-1.4243731699213384,-2.624909819667041
1683689668976943600,1.506943603515625,-2.7745249193340538,-2.3543358059749004,-2.5631629730671643
1683689668986914300,1.516914306640625,-2.201520448961854,-0.1040831825479865,-2.9242133764982223
1683689668996885500,1.526885498046875,-2.2679881866037843,-0.5285960043251514,-2.6474013451993463
1683689669006857500,1.536857421875,-0.8708248029083013,-1.000633670604229,-0.5821890628248453
1683689669016828400,1.546828369140625,0.7639619265139103,-0.1772770135745406,1.688846820911765
1683689669026799400,1.55679931640625,-0.0629553456068039,-0.060013739196956156,3.1468074953973293
1683689669036771600,1.566771484375,-1.4031062177479265,-0.89059625582695,3.236863029375672
1683689669046742500,1.576742431640625,-1.8175941968560219,0.7018064991131424,3.1527193497896193
1683689669056713200,1.586713134765625,-1.486266146993637,1.1847095505386591,2.785066187092662
1683689669066684400,1.596684326171875,-0.9041530720144509,1.2365233244061469,2.879906617259979
1683689669076656400,1.606656494140625,-0.18499883999824523,1.8277976109623908,2.5134581541776657
1683689669086627600,1.616627685546875,-0.03999181864857673,2.344818328306079,2.1679092712610957
1683689669096598300,1.626598388671875,0.04293021018803119,2.1501061958059666,2.130432065781951
1683689669106570500,1.636570556640625,-0.20784955423176288,1.3545996687322854,1.3220792088776827
1683689669116541400,1.64654150390625,-0.39730478911697864,-0.702751086486876,-0.8574117791056632
1683689669126512600,1.6565126953125,2.625437935194373,-2.680875744777918,-2.709236162343621
1683689669136483300,1.6664833984375,0.17887538868188857,-1.2072937227904796,-2.9488287623167038
1683689669146455600,1.67645556640625,-1.1099293271034956,-1.021169093632698,-1.7220312976330518
1683689669156426500,1.686426513671875,-0.2885720271974802,0.09800240132957697,-1.519584479227662
1683689669166397400,1.6963974609375,0.14404022214412687,-0.13334054895341396,-1.8897475789189337
1683689669176369400,1.706369384765625,1.2650935853302478,1.1265247803345322,-1.3515730143874882
1683689669186340400,1.71634033203125,1.5591016661018133,2.372765196634829,-0.764464030817151
1683689669196311600,1.7263115234375,1.1526181297510862,1.8677242554202675,-0.6316641646116972
1683689669206283300,1.736283203125,0.20111878467202185,0.6831278098672628,-0.7192541852593421
1683689669216254500,1.74625439453125,0.007288987964391708,0.4401292008429765,-0.43469548535645003
1683689669226225400,1.756225341796875,0.47007834890484806,0.38118192183375355,-0.06646013885736465
1683689669236196600,1.766196533203125,0.20050795929729937,0.4191463263079524,0.15552607727646828
1683689669246168300,1.776168212890625,-0.045564065822958945,0.7794505875468254,0.6636971332103013
1683689669256139500,1.786139404296875,-0.6234656605869531,0.9438818558126687,1.1302326949417592
1683689669266110500,1.7961103515625,-1.155139757183194,0.6479077356651425,1.4980015929728745
1683689669276082400,1.80608251953125,-0.367626274690032,2.1827549582153556,1.7693202875524758
1683689669286053400,1.816053466796875,-1.5211264479726552,-0.3105313455492258,2.2015566893190144
1683689669296024300,1.8260244140625,-2.091184928020835,-0.6351169354140758,0.7494149302452803
1683689669305995500,1.83599560546875,-1.1952940729171038,-1.1173895799815654,0.2401946575194597
1683689669315967200,1.84596728515625,-1.568695423877239,-2.3595985488086937,0.597490092331171
1683689669325938400,1.8559384765625,-2.021445621362328,-1.6786568508088588,0.6769453218400477
1683689669335909400,1.865909423828125,-1.3876689946413039,-1.4788760367423295,1.069206271570921
1683689669345881300,1.87588134765625,-1.0692641392379998,-1.0212357291281222,1.582785908550024
1683689669355852300,1.885852294921875,-0.8705968393713235,-0.4138181170225143,1.6690841358214616
1683689669365823500,1.895823486328125,-0.953090705923736,-0.4385311179965734,1.7840280273407696
1683689669375794400,1.90579443359375,-0.558449875319004,-0.8436655778259038,1.683005693668127
1683689669385766400,1.915766357421875,0.817089121067524,-1.188210252135992,1.2276017668038606
1683689669395737300,1.9257373046875,1.7602292186021804,-1.22318278131783,0.2981394814878702
1683689669405708300,1.935708251953125,4.81841150508523,-0.8932710279941558,-0.9513409396469592
1683689669415680500,1.945680419921875,6.268420928305387,0.44843467237353324,-3.114198188215494
1683689669425651200,1.955651123046875,4.055502887016535,0.27124855195283887,-4.522046047532558
1683689669435622400,1.965622314453125,2.05057410069108,1.6921294958442448,-2.897240029376745
1683689669445593300,1.97559326171875,0.8388800971150397,2.094324979612231,-0.11833411847949027
1683689669455565600,1.985565673828125,-0.04026069871783256,2.125862858170271,1.706142823627591
1683689669465536300,1.995536376953125,-0.29990181498527524,3.403572179445624,4.119969221708178
1683689669475507500,2.005507568359375,0.11200433093607425,4.2788299963653085,6.519617456832528
1683689669485479400,2.0154794921875,1.0772983926117419,5.6971887283027165,9.082494014173745
1683689669495450600,2.02545068359375,1.422775671596825,10.576928270053862,13.532102602005004
1683689669505421300,2.03542138671875,0.2344157818570733,7.358051563745737,4.605065691524744
1683689669515392300,2.045392333984375,2.255644545598328,5.856136012199521,9.485862633374333
1683689669525364500,2.055364501953125,0.14212722812965511,-0.3666121292114258,1.4542489604860542
1683689669535335400,2.06533544921875,2.110105024807155,-9.40186742234826,-3.2948522770076987
1683689669545306400,2.075306396484375,0.9729542210400104,-10.337036979395151,-10.294412474155425
1683689669555278600,2.085278564453125,0.2137000338256359,-13.408451672416925,-16.633938152253627
1683689669565249500,2.09524951171875,1.4380702713623643,-10.60933065648675,-16.944058578914404
1683689669575220200,2.10522021484375,1.9691040242284534,-3.2933424569666383,-11.638698254144192
1683689669585191400,2.11519140625,1.0764427986957132,-2.2669179270237683,-6.220409469330311
1683689669595163400,2.125163330078125,2.8034947009697553,-1.546602834534645,-3.046807490509748
1683689669605134600,2.135134521484375,3.9832659183233976,-0.02932195607423782,0.8770441158145665
1683689669615105300,2.145105224609375,2.863336298470199,-0.3330272549957037,3.603157763200998
1683689669625077500,2.155077392578125,-0.42734833746403456,-0.1282271514624357,2.7873598509877917
1683689669635048400,2.16504833984375,-1.9890262837946413,0.283421220305562,-0.07616261770427227
1683689669645019600,2.17501953125,-3.3829324192598462,0.3908966756403446,-1.755705603697896
1683689669654991400,2.184991455078125,-4.786692132480442,0.8372165478169917,-3.6293618795156477
1683689669664962600,2.194962646484375,-5.422749855875969,1.2466554268419743,-5.480262718167901
1683689669674933500,2.20493359375,-4.163384877325594,0.597079757964611,-5.995176818621158
1683689669684904400,2.214904541015625,-2.8428891382470725,-0.15883856282532213,-5.28085716715455
1683689669694876400,2.22487646484375,-0.49457098512649533,1.0273206019997596,-2.1215847424596546
1683689669704847400,2.234847412109375,2.168114438444376,4.086909832671284,4.9319887844264505
1683689669714818600,2.244818603515625,2.6062121334597466,2.2544512441605327,8.260250579082966
1683689669724790300,2.254790283203125,3.5324458121180533,0.5477005177676677,8.477544253486395
1683689669734761500,2.264761474609375,4.884021456854045,-0.5765104326665401,7.943753603127599
1683689669744732400,2.274732421875,4.011152873158455,-1.5611030690521002,6.448577004447579
1683689669754703600,2.28470361328125,1.8015712828159332,-1.3309627725571394,4.876681907746195
1683689669764675300,2.29467529296875,0.5060005800269544,0.5230851319491863,4.772175239089131
1683689669774646500,2.304646484375,-0.6012741409145296,1.0230810647338628,5.285719220232963
1683689669784617500,2.314617431640625,-0.48064665080085395,1.7530974670261144,5.339449056854844
1683689669794589400,2.32458935546875,1.0952362734276802,0.7905839759796858,4.151323560392856
1683689669804560400,2.334560302734375,2.582514739269018,-0.6201379774689674,2.812182742077112
1683689669814531300,2.34453125,3.4109611206531523,-2.9974796882390975,1.2559341273188591
1683689669824502500,2.35450244140625,3.09721490471065,-3.0792642374783754,0.5947124443113804
1683689669834474200,2.36447412109375,1.3080500990033148,-3.2248873448997735,-0.7520259895265102
1683689669844445400,2.374445556640625,-0.16191020708931608,-3.7880344381242987,-2.9237767386466262
1683689669854416400,2.38441650390625,-0.9434837964057922,-3.4428432826042172,-4.984726102879643
1683689669864387600,2.3943876953125,-2.054596780335903,-2.286693471595645,-6.865981163263321
1683689669874359300,2.404359375,-2.842714658463001,-2.188666812607646,-7.904041770464182
1683689669884330500,2.41433056640625,-3.801789991754293,-1.5233575680255889,-8.218402318912744
1683689669894301400,2.424301513671875,-4.064215770304203,-2.016385415363312,-7.68857998766303
1683689669904273400,2.4342734375,-3.4211972679853435,-1.408279236471653,-6.725800539156794
1683689669914244400,2.444244384765625,-2.636999193650484,-0.46741292908787724,-5.4218678123444315
1683689669924215300,2.45421533203125,-1.0395077372692525,0.92295421859622,-3.865718566307425
1683689669934186500,2.4641865234375,2.2260499100625513,2.830397028681636,-0.8521087042614817
1683689669944158200,2.474158203125,4.239925388431549,4.7472605780631305,4.253200757329165
1683689669954129400,2.48412939453125,3.7005566456794736,6.490526971426606,2.60164614071846
1683689669964100400,2.494100341796875,3.4687539689302445,7.061180494758486,-0.08519348089993
1683689669974072600,2.504072509765625,2.531422849935293,6.319075010743737,-1.7093939343780278
1683689669984043300,2.514043212890625,0.831655187362805,0.3717120826989412,-2.6150577032163738
1683689669994014500,2.524014404296875,-0.8603741360425948,2.218625897541642,-3.50307767881453
1683689670003985400,2.5339853515625,-1.6820999770000575,-0.28754969841241834,-4.012557186998427
1683689670013957400,2.543957275390625,-0.3986183559335768,-0.9082891489058732,-1.0454466257989405
1683689670023928300,2.55392822265625,0.2360487898863852,-1.4954355418771506,0.8106587957590818
1683689670033899300,2.563899169921875,1.2669674163781106,-1.9683418076843022,2.6245029924318195
1683689670043871500,2.57387158203125,2.149929962456226,-0.7268488781720399,4.424627875831723
1683689670053842400,2.583842529296875,1.7673834742709993,-0.3804121065050363,4.93633528919816
1683689670063813400,2.5938134765625,0.9656183982592076,-0.19769699352979658,4.755956510215998
1683689670073784300,2.603784423828125,0.18501169947981833,0.389607220351696,4.377194801266491
1683689670083756500,2.613756591796875,-0.7795780863840133,0.9229863673001527,3.6718922767311333
1683689670093727200,2.623727294921875,-1.4545745391786098,1.2157125915676354,2.8352538210630414
1683689670103698700,2.63369873046875,-1.5594704994142055,1.0367980399191379,2.4288132470712065
1683689670113670700,2.643670654296875,-1.3626713315069674,0.5951642797321081,2.29914144975841
1683689670123641900,2.653641845703125,-1.1663410232204943,0.34067221679091453,2.301167694889009
1683689670133612500,2.663612548828125,-0.35125089395046233,-0.21066636521816254,5.38634232545495
1683689670143583500,2.67358349609375,-1.4812708229243754,-2.565343824237585,5.641745658022165
1683689670153555700,2.6835556640625,-5.223624290847778,-8.220157053625583,-0.4312389151617884
1683689670163526700,2.693526611328125,-0.6030827977716923,-8.101858006459475,-2.6393203300744292
1683689670173497600,2.70349755859375,1.4843429238460957,-6.16539368455112,-2.4056661802396175
1683689670183469600,2.713469482421875,-0.2759025152385235,-3.8914977352082727,-2.89491830843091
1683689670193440800,2.723440673828125,-0.5202687593542039,-0.7835697133034467,-2.3768776003897187
1683689670203411500,2.733411376953125,-0.9119126001000404,0.5561760851681232,-1.453195944301784
1683689670213382700,2.743382568359375,1.8775835322640835,-1.0991139185786247,-0.9993646735817193
1683689670223354600,2.753354736328125,6.685871264350414,-3.8132349303543567,-1.65556589807868
1683689670233325800,2.763325927734375,5.565954211717844,-6.182822958257794,-0.8467916008919477
1683689670243296500,2.773296630859375,4.408350694769621,-7.640348163935542,1.8807807208701968
1683689670253267500,2.783267333984375,3.094167792099714,-4.30523518821001,1.9898902071475981
1683689670263239700,2.79323974609375,0.6910544381480663,-0.18307693202495573,1.2408449869975446
1683689670273210600,2.803210693359375,0.7449543706398457,0.013031331008672714,1.6341060536816716
1683689670283181600,2.813181640625,-2.958566896998882,-0.9788175601154565,2.9558333803817627
1683689670293153500,2.823153564453125,-1.6979916658759115,0.6606324849426746,1.6403572230309247
1683689670303124700,2.833124755859375,-5.96151069586277,7.797998393759131,-2.655505156677961
1683689670313095700,2.843095703125,-7.3722799955844875,6.765484899291396,-2.196661318492889
1683689670323066600,2.853066650390625,-7.318356682217121,4.776272737535834,-0.43925358705222606
1683689670333038600,2.86303857421875,-5.064527953869104,3.7608769666075705,-1.0496844094991684
1683689670343009800,2.873009765625,-2.336479977419227,3.1625381484925743,-1.7374182518571615
1683689670352980700,2.882980712890625,5.705003785967826,2.776803385660052,-3.708754565182328
1683689670362951400,2.892951416015625,7.51595547606945,3.210111800572276,-4.028360320807993
1683689670372923600,2.902923583984375,3.5533129513189197,3.880460792887211,-2.1423276707589625
1683689670382894600,2.91289453125,0.7319137603461742,4.631405416917801,-1.349175013335049
1683689670392865500,2.922865478515625,-0.8448108754035085,5.44341153563261,-1.072832499244064
1683689670402837500,2.93283740234375,-0.2750806774616241,4.781338204231858,-1.1320812454178928
1683689670412808700,2.94280859375,0.5950080662570894,3.32812209392488,-0.9816120131395757
1683689670422779600,2.952779541015625,0.4624701389234513,2.2930589149743317,-0.2558672968171537
1683689670432750600,2.96275048828125,0.024965952821820972,1.5293857422739265,0.9160076143287121
1683689670442722600,2.97272265625,-0.32091523078903555,1.119225563237071,1.719711476383358
1683689670452693800,2.98269384765625,-0.6667514062143862,1.2467530419975519,1.7334430646158754
1683689670462664700,2.992664794921875,-0.5760885539926588,2.110893837097287,1.4407355450488626
1683689670472635600,3.0026357421875,-0.28363340175151824,2.112368001303077,1.5190309369981287
1683689670482607600,3.012607666015625,-0.18890563817843795,0.05518120447397232,2.710633754181862
1683689670492578800,3.022578857421875,-0.0721298550568521,-1.4592881236970423,3.0078841778755185
1683689670502549800,3.0325498046875,1.0944400815486908,-1.0894102706879376,1.7061650354593991
1683689670512521700,3.042521728515625,0.6066777535237372,-0.79880060018301,0.5989249474398791
1683689670522492700,3.05249267578125,0.30942250752449035,-0.3932318405896425,-0.01973608934432268
1683689670532463600,3.062463623046875,0.44966684451699257,-1.1781178971886634,-0.32305326573103665
1683689670542434800,3.072434814453125,1.0239840049229563,-1.8012252458572386,0.1283512162335217
1683689670552406500,3.082406494140625,1.2065735918223857,-1.7479256173461675,0.8994789427235722
1683689670562377700,3.092377685546875,0.564582825116068,-1.5544015255868433,1.063650829400867
1683689670572348700,3.1023486328125,0.003927987098693847,-0.9461562304854393,0.8513649001568555
1683689670582319600,3.112319580078125,-0.3009282354235649,-0.38162265133857726,0.5454705667585135
1683689670592291600,3.12229150390625,-0.39908465827107426,0.04644494031071662,0.24514672696888445
1683689670602262800,3.1322626953125,-0.3418852458424866,0.2924842322051525,-0.10322963445857167
1683689670612233700,3.142233642578125,-0.1992531369306147,0.4400964676171541,-0.09811302209720014
1683689670622205700,3.152205810546875,-0.012971709775924682,0.4996878897488117,0.16846797643601893
1683689670632176600,3.1621767578125,0.24886355553492903,0.21096739399135112,-0.12371961091011761
1683689670642147600,3.172147705078125,0.4937313194319606,0.05781038393378257,-0.2462305766828358
1683689670652118800,3.182118896484375,0.6020572541162371,0.008149988707900046,0.17228972668126225
1683689670662090500,3.192090576171875,0.2731982247158885,-0.16641455103754996,-0.13163359890505671
1683689670672061700,3.202061767578125,-0.1090545412197709,-0.33824703547060486,-0.6473815198339522
1683689670682032600,3.21203271484375,-0.22600553477779028,-0.4442506646871566,-0.9375945922367275
1683689670692004600,3.222004638671875,-0.11614201526269316,-0.5083692088544368,-0.9513462003439664
1683689670701975600,3.2319755859375,0.03033200989961624,-0.4714022909849882,-0.757712802991271
1683689670711946800,3.24194677734375,-0.07794935499057173,-0.431075541293621,-0.5341422402754425
1683689670721917700,3.251917724609375,-0.1745123711667955,-0.2911369092494249,-0.23987960022091864
1683689670731889700,3.2618896484375,-0.15431626309528945,-0.12399170584976672,0.02116802184358239
1683689670741860600,3.271860595703125,-0.12568623480796814,0.0315624284774065,0.21355302657037972
1683689670751831600,3.28183154296875,-0.10046879144310951,0.11777297746539116,0.296627323359251
1683689670761803500,3.291803466796875,0.0014342705868184565,0.1415478208065033,0.32108547278940675
1683689670771774500,3.3017744140625,0.09052475892528891,0.15723872641324996,0.3177455147117376
1683689670781745700,3.31174560546875,0.07540668477043509,0.1483615924745798,0.305199775262922
1683689670791716600,3.321716552734375,0.012450462380796671,0.11539864954948424,0.31991701353192326
1683689670801688600,3.3316884765625,-0.07037424356117844,0.08000994078218937,0.33839155850782987
1683689670811659500,3.341659423828125,-0.09653262103796005,0.08062953398525714,0.35806495787948367
1683689670821630700,3.351630615234375,-0.029145430463552474,0.11720131505727767,0.3749944653704762
1683689670831601700,3.3616015625,0.018906798913329838,0.14464812490940093,0.3579553600251674
1683689670841573600,3.37157373046875,-0.04659793891534209,0.17532032654881477,0.3004042115494609
1683689670851544600,3.381544677734375,-0.07270736268386245,0.24035247842967508,0.2744222135528922
1683689670861515500,3.391515625,-0.04726794713139534,0.27119068428575993,0.2476549103975296
1683689670871487700,3.40148779296875,-0.09772957573756574,0.24357670117318628,0.17771394368708132
1683689670881458400,3.41145849609375,-0.1539560514807701,0.20222703817486762,0.11574527103006839
1683689670891429600,3.4214296875,-0.13453925721868873,0.21867899128198623,0.11100830563604831
1683689670901400600,3.431400634765625,-0.16869184831976888,0.13393617675900457,0.05502192225903272
1683689670911372500,3.44137255859375,-0.2513688163541257,-0.029720600003004072,-0.07167115150392055
1683689670921343500,3.451343505859375,-0.19830957247018813,-0.06850830355882644,-0.10052928945869206
1683689670931314700,3.461314697265625,-0.1795465659417212,-0.12937982862889766,-0.11734642261639237
1683689670941285600,3.47128564453125,-0.1765371549926698,-0.19035189146399498,-0.1531190161347389
1683689670951257600,3.481257568359375,-0.11751710300818086,-0.13972352798879145,-0.17050751943960785
1683689670961228500,3.491228515625,-0.09507584635838866,-0.0006797989577054977,-0.14990502252429722
1683689670971199500,3.501199462890625,-0.17852014550343154,-0.01080722521841526,-0.1544846053995192
1683689670981170700,3.511170654296875,-0.0863162013195455,-0.0022135843962430954,0.0029857378125190733
1683689670991142700,3.521142578125,0.0366775795340538,-0.07732640078663826,0.19477993703931568
1683689671001113600,3.531113525390625,0.14316694644093514,-0.1568979501515627,0.3094859281495213
1683689671011084500,3.54108447265625,0.11392901538833976,-0.2805295905172825,0.2363432427883148
1683689671021056800,3.551056884765625,0.2527868664585054,-0.19875673171579836,0.18036475045681
1683689671031027500,3.56102734375,0.3566718960858881,-0.0050900166153907776,0.10993863057792186
1683689671040998700,3.57099853515625,0.18680837363824246,0.05046645091176033,-0.07865268095433711
1683689671050969600,3.580969482421875,0.102520317145437,0.1282329966813326,-0.16813041504472492
1683689671060941800,3.59094189453125,0.12958835681304334,0.22169220162332057,-0.10925766257643699
1683689671070912500,3.60091259765625,0.07596446478366851,0.2138128465503454,-0.008027239111065863
1683689671080883700,3.6108837890625,0.021998919709771872,0.13691373126506803,0.11295505578964948
1683689671090854700,3.620854736328125,0.07705737458691,0.09873626856207847,0.1647115465119481
1683689671100826600,3.63082666015625,0.1420353120625019,0.12119476860761642,0.10997253284752369
1683689671110797600,3.640797607421875,0.12928922773599624,0.11277999148368835,0.019884557904303074
1683689671120768500,3.6507685546875,0.026904227408021685,0.06096154144108295,0.00034691374152898786
1683689671130740700,3.66074072265625,-0.0193595111168921,0.004709492865204811,0.06775047092884778
1683689671140711400,3.67071142578125,0.08615721136555075,0.005794365492463111,0.21784487854540346
1683689671150682600,3.6806826171875,0.2181915000259876,0.011896189498901366,0.329988617952168
1683689671160653600,3.690653564453125,0.1885899963580072,0.016596914535760877,0.31909722158163784
1683689671170625800,3.700625732421875,0.1051579721726477,0.06667875004410743,0.21758505856543778
1683689671180596500,3.710596435546875,0.04995338682308793,0.11611293529868125,0.07473492298871279
1683689671190567700,3.720567626953125,-0.020347206979990005,0.12860884425640107,-0.015519932954013346
1683689671200538600,3.73053857421875,-0.008938508737087248,0.1062725092858076,-0.08297638937234877
1683689671210510800,3.7405107421875,0.03884849383234978,0.04133738803863525,-0.13285042734891175
1683689671220481500,3.7504814453125,0.01982917445525527,-0.0676566551655531,-0.17347206833362577
1683689671230452500,3.760452392578125,-0.033439328265190124,-0.13893150082826614,-0.19580986460894345
1683689671240424700,3.7704248046875,-0.040135611033439635,-0.12584405571818352,-0.22082038722485303
1683689671250395600,3.780395751953125,0.057038815039396285,-0.06509060406982899,-0.22263591221421955
1683689671260366600,3.79036669921875,0.1313465986572206,0.015743512576818466,-0.21269114904403685
1683689671270337500,3.800337646484375,0.05900353924110532,0.061629649960994716,-0.20623948868662118
1683689671280309800,3.810309814453125,-0.04941781864166259,0.022166239100694655,-0.21441636540144682
1683689671290280700,3.82028076171875,-0.07143807340040803,-0.035921792730689045,-0.1723509553492069
1683689671300251600,3.830251708984375,-0.04556684230193495,-0.10281915396153926,-0.08972790945917368
1683689671310222600,3.84022265625,-0.05585924986600876,-0.15841127732396124,-0.018342004637420178
1683689671320194800,3.85019482421875,-0.0896120279945433,-0.16214929480850696,-0.007850713500380515
1683689671330165500,3.86016552734375,-0.055812341984361406,-0.10755904196500778,-0.05375877045542001
1683689671340136400,3.870136474609375,-0.022575404423475266,-0.05473229166269302,-0.09956161347031593
1683689671350108700,3.880108642578125,-0.0775697080232203,-0.06855564983189105,-0.16317074681073426
1683689671360079600,3.89007958984375,-0.14152838545367122,-0.12186930686831474,-0.21665976041406393
1683689671370050600,3.900050537109375,-0.11919555761441587,-0.1385311033338308,-0.24668723440915344
1683689671380021500,3.910021484375,-0.018342443028837443,-0.10771627835333347,-0.24779431886821984
1683689671389993700,3.91999365234375,0.012333411872386933,-0.09857961669564247,-0.26276918516010045
1683689671399964700,3.929964599609375,0.0010801964521408081,-0.1188122573852539,-0.2599769240930676
1683689671409935600,3.939935546875,0.014007336433976888,-0.10810440088808536,-0.23509324272722004
1683689671419906600,3.949906494140625,0.058403235260397195,-0.08435293842256068,-0.19410481425672768
1683689671429878800,3.959878662109375,0.06541954376325011,-0.04867839845120907,-0.14148586148619652
1683689671439849700,3.969849609375,0.022211539547145366,-0.023940263035893437,-0.05478168376237154
1683689671449820400,3.9798203125,0.02151698141172528,-0.001260229194164276,0.009899754984676837
1683689671459791600,3.98979150390625,0.04878288173899054,0.021782208219170568,0.0325993703097105
1683689671469763600,3.999763671875,0.07719897501468657,0.050101124730706215,0.051501346917450425
1683689671479734800,4.00973486328125,0.1204243687570095,0.07532382879257202,0.0719131435662508
1683689671489705500,4.01970556640625,0.1452419991493225,0.08944529312551021,0.09170739283859729
1683689671499677700,4.029677734375,0.08651946880668401,0.07566811218559742,0.10430617764890193
1683689671509648600,4.039648681640625,0.1310381172299385,0.03150748341977596,0.12691110042780637
1683689671519619600,4.04961962890625,0.21918518723845481,-0.010416180074214935,0.1388698337689042
1683689671529590500,4.059590576171875,0.21096344846859574,-0.039644028124213214,0.14113836322277784
1683689671539562800,4.069562744140625,0.16116174507588146,-0.04362812932431698,0.1183396714374423
1683689671549533700,4.07953369140625,0.1174560204707086,-0.040780923199653624,0.0949444750636816
1683689671559504600,4.089504638671875,0.12195859258696436,-0.01136836623251438,0.07707885576635598
1683689671569475600,4.0994755859375,0.08441182900294661,0.04714812014400959,0.07464490661770105
1683689671579447800,4.10944775390625,0.022134528788179158,0.12282616920173167,0.13294015145897864
1683689671589418800,4.119418701171875,0.08668211202248931,0.17641922770142554,0.1798085778787732
1683689671599389400,4.129389404296875,0.1679215945996344,0.19267887310683726,0.22488661375045774
1683689671609360600,4.139360595703125,0.1987022250495851,0.1774316196143627,0.26789339630603787
1683689671619332600,4.14933251953125,0.18655366822481154,0.1118845039486885,0.2601610484883189
1683689671629303800,4.1593037109375,0.14140300550833343,0.042053427353501316,0.23007453778237102
1683689671639274500,4.1692744140625,0.08625672621726989,-0.006370119553804397,0.1962652071610093
1683689671649246700,4.179246826171875,0.04742211477980018,-0.03174830643832684,0.1957555040732026
1683689671659217700,4.1892177734375,0.0350492476798594,-0.03505027059316635,0.1960720226764679
1683689671669188900,4.19918896484375,0.0484895978808403,0.018870704686641693,0.20212942301928996
1683689671679159600,4.20915966796875,0.06682721860408783,0.03181318836808204,0.19162439561784267
1683689671689131800,4.2191318359375,0.08428352644816041,0.03226677735447883,0.13682868333011866
1683689671699102700,4.229102783203125,0.08222571713551878,0.04258358870744705,0.09035130205452442
1683689671709073700,4.23907373046875,0.012024638184159993,0.045399815171957014,0.03709317459762096
1683689671719045600,4.249045654296875,-0.022024930933862923,0.010067220506072044,0.007812135055661201
1683689671729016600,4.2590166015625,-0.0015663725338876246,-0.043667292290925974,0.012983984735608101
1683689671738987800,4.26898779296875,0.024444705426692963,-0.10532324573695659,0.015046470223367213
1683689671748958500,4.27895849609375,0.022129998743534086,-0.125848731893301,0.025427871245145797
1683689671758930700,4.2889306640625,-0.0009492635488510131,-0.10029226583242416,-0.003237374486029148
1683689671768901600,4.298901611328125,0.01867079820036888,-0.052145197778940194,-0.04638970299214124
1683689671778872800,4.308872802734375,0.060804158922284836,-0.023712299498915672,-0.07047463519573212
1683689671788843500,4.318843505859375,0.07333879245519638,-0.024933950248360634,-0.0646492900431156
1683689671798815700,4.328815673828125,0.06974032957181334,-0.01866787559092045,-0.02033171714991331
1683689671808786700,4.33878662109375,0.05675006122589111,-0.010350713622570036,0.01904723029732704
1683689671818757600,4.348757568359375,0.087255235735327,-0.036727848416566844,0.04408113378882408
1683689671828728600,4.358728515625,0.15283040845170617,-0.047127661877870555,0.05804594625532627
1683689671838700500,4.368700439453125,0.1574057535432279,-0.006888590469956398,0.049994157224893566
1683689671848671700,4.378671630859375,0.07989011379480361,0.04103694378733635,0.021217267812788484
1683689671858642700,4.388642578125,0.07638166728243231,0.05659691649079322,-0.005622223795950412
1683689671868613600,4.398613525390625,0.14815306429043412,0.051072015589475626,-0.01436345639526844
1683689671878585600,4.408585693359375,0.1349333711028099,0.029471593677997586,-0.034822599317133426
1683689671888556800,4.418556884765625,0.08915595479011536,0.03307107947468758,-0.025325579914450645
1683689671898527700,4.42852783203125,0.06816212046965957,0.025354221487045286,-0.022862989193201063
1683689671908499700,4.438499755859375,0.06652560530900954,-0.006491700106859207,0.0028162264645099637
1683689671918470700,4.448470703125,0.05965615793094039,-0.03248480401933193,0.015711656133830545
1683689671928441600,4.458441650390625,0.05337137857303023,-0.035620763957500454,0.04414163180440664
1683689671938412500,4.46841259765625,-0.001061637882143259,0.015243746361136436,0.05970306581258773
1683689671948384500,4.478384521484375,-0.018765490746498106,0.055981999462842935,0.043785073451697826
1683689671958355700,4.488355712890625,0.04211845541372895,0.037975218129158016,-0.0008794131830334663
1683689671968326700,4.49832666015625,0.06898074337616562,-0.010374679020047187,-0.02778232541680336
1683689671978297600,4.508297607421875,0.02092822173833847,-0.04729834226965904,-0.04965542678982019
1683689671988269600,4.51826953125,0.001234656361490488,-0.07204583003520965,-0.036843291489779946
1683689671998240800,4.52824072265625,0.028511808735132215,-0.06962064871490001,-0.016227204440534115
1683689672008211700,4.538211669921875,0.0548867515720427,-0.06120528706908226,0.005508242027461529
1683689672018183700,4.54818359375,0.03118321990147233,-0.04059329167306423,0.026521511700749397
1683689672028154600,4.558154541015625,0.02880772294178605,0.01815758798122406,0.04741466212570667
1683689672038125600,4.56812548828125,0.06268178936243057,0.048230070161819454,0.06476356407254934
1683689672048096800,4.5780966796875,0.08853636158704757,0.039967268729209894,0.05190203667283058
1683689672058068500,4.588068359375,0.12577025982961057,0.034146015229821206,0.024697511143982408
1683689672068039700,4.598039794921875,0.11960735328570007,-0.0017839608073234557,0.0008434650868177413
1683689672078010600,4.6080107421875,0.08868146914616226,-0.057498249244689936,0.00348433498442173
1683689672087981800,4.61798193359375,0.0890672535933554,-0.06407587406933307,0.039218788449466226
1683689672097953500,4.62795361328125,0.11140504986867308,-0.043864860689640045,0.0689873192474246
1683689672107924700,4.6379248046875,0.10068038836717605,-0.036468320697546006,0.06309007790237665
1683689672117896000,4.64789599609375,0.09036240797042847,-0.04567570950388908,0.05786211412101984
1683689672127866600,4.65786669921875,0.12795403360947966,-0.03704991997778415,0.0642380788937211
1683689672137838800,4.6678388671875,0.18799641437903045,0.0004524199426174164,0.047530397459864614
1683689672147809800,4.677809814453125,0.20508520408496259,0.039406712237000464,0.004011573728919029
1683689672157780700,4.68778076171875,0.26351196635141966,0.06787117469906806,-0.054636137811839576
1683689672167751700,4.697751708984375,0.2600678172469139,0.09626374096870421,-0.11043342835754155
1683689672177723600,4.7077236328125,0.15521876489296554,0.11555880854725838,-0.1348787183061242
1683689672187694800,4.71769482421875,0.07658624994382261,0.09924655617177486,-0.11427753656506538
1683689672197665800,4.727665771484375,0.03402385015487671,0.04598492158353328,-0.0766205906048417
1683689672207637800,4.7376376953125,0.0356581733584404,-0.020582184779644012,-0.025117782382667063
1683689672217608700,4.747608642578125,0.0734787854477763,-0.0442325249582529,0.031005379116535184
1683689672227580000,4.757579833984375,0.1245639527797699,-0.042805122503638264,0.08925503125041723
1683689672237550800,4.76755078125,0.19258827221393585,-0.013446341550350188,0.11663988178223371
1683689672247522800,4.777522705078125,0.28014278315678237,0.00910100582242012,0.1359492701470852
1683689672257493800,4.78749365234375,0.35432094904556866,-0.0029331308424472807,0.1464043209269643
1683689672267464700,4.797464599609375,0.4136193795800209,-0.04493102861642837,0.14333002804815767
1683689672277436000,4.807435791015625,0.4251391369819641,-0.11319500202536582,0.14331921439319847
1683689672287407900,4.817407958984375,0.33127325093522664,-0.1629629492789507,0.14299451248347758
1683689672297378800,4.82737890625,0.2766797832213342,-0.1506447349756956,0.1344378426708281
1683689672307349800,4.837349853515625,0.25008973632901904,-0.1057324110597372,0.15766937291547656
1683689672317320700,4.84732080078125,0.2073776989363134,-0.0649064796745777,0.19491539998725055
1683689672327292700,4.857292724609375,0.18392331972122192,-0.028936171627044677,0.19622662871628999
1683689672337263900,4.867263916015625,0.2588755387224257,0.0032031799554824826,0.21968349214941263
1683689672347234800,4.87723486328125,0.31947862211465833,0.022620997130870818,0.2595987384304404
1683689672357206800,4.887206787109375,0.31034473693594333,0.03310615078806877,0.2525574416168034
1683689672367177700,4.897177734375,0.2751154565140605,0.03750584705173969,0.17194222841784357
1683689672377149000,4.90714892578125,0.2173825217306614,0.07619418188631534,0.07317658763080835
1683689672387119900,4.917119873046875,0.18857889044210313,0.10087971033155918,0.05929243918508291
1683689672397091800,4.927091796875,0.16528028631061314,0.06369242770969867,0.10019684263393282
1683689672407062800,4.937062744140625,0.09458017179593443,-0.004729366609454154,0.15337898224517701
1683689672417033700,4.94703369140625,-0.012532295445352792,-0.05926525891721248,0.20991393941566347
1683689672427005000,4.9570048828125,-0.048573915163427586,-0.05077975464463234,0.22374226602092384
1683689672436976600,4.9669765625,-0.057668783506006,0.04800736732184887,0.21052958709597586
1683689672446947800,4.97694775390625,-0.021302608008682725,0.19264438631534575,0.18005656129047273
1683689672456918800,4.986918701171875,0.12143310740813612,0.3174970929086208,0.1429743464782834
1683689672466890000,4.996889892578125,0.18400734474286437,0.31507308063209055,0.10031754640415311
1683689672476861700,5.00686181640625,0.029770868885517117,0.2142062297821045,0.08375351122468709
1683689672486833000,5.0168330078125,-0.11990414427518845,0.06396189230084419,0.02385521510094404
1683689672496803800,5.026803955078125,-0.1798106237053871,-0.07523381242156028,-0.04431114315241575
1683689672506774800,5.03677490234375,-0.22269772540405391,-0.1824853958725929,-0.09529460367560386
1683689672516746800,5.046746826171875,-0.25876550247669217,-0.2460252633690834,-0.1557955418676138
1683689672526717700,5.0567177734375,-0.26606968801021574,-0.25045710833668705,-0.2278898872196674
1683689672536689000,5.06668896484375,-0.2116283421181142,-0.22364158212542531,-0.3106406511425972
1683689672546659600,5.07665966796875,-0.1027661086000502,-0.18569851270020007,-0.35133754932060834
1683689672556631800,5.0866318359375,0.0017630641497671602,-0.14999416211247443,-0.3481237018406391
1683689672566602800,5.096602783203125,-0.007456161224842071,-0.11892448558807373,-0.3784729551360011
1683689672576574000,5.106573974609375,-0.0633740094102919,-0.14065993205606936,-0.43909912714287636
1683689672586545700,5.116545654296875,-0.132673755607754,-0.2355593989342451,-0.47154243010804053
1683689672596516900,5.126516845703125,-0.17323825957775116,-0.3033855654478073,-0.4132359332203865
1683689672606487800,5.13648779296875,-0.09427183649912475,-0.24457740264832972,-0.3327918388046324
1683689672616458800,5.146458740234375,-0.00213233585357666,-0.15837620601058006,-0.24148119019865988
1683689672626430700,5.1564306640625,0.0470658486880362,-0.08812485817670822,-0.13688333612680434
1683689672636401700,5.166401611328125,0.10046762239933013,-0.0006961655706167221,-0.05930500640571117
1683689672646372900,5.176372802734375,0.1040777757205069,0.02231470766067505,0.0008846738800406456
1683689672656343800,5.18634375,0.08742445482239126,-0.03285129924416542,0.022376374720036982
1683689672666315800,5.196315673828125,0.0687422584451735,-0.04473112213015556,-0.03307166399657726
1683689672676286700,5.20628662109375,-0.002026975782960653,0.007296586748957634,-0.15073708943426609
1683689672686258000,5.2162578125,0.027308862686157225,0.0591512771487236,-0.2515010644316673
1683689672696228900,5.226228759765625,0.0748221628807485,0.07566986575126647,-0.2760084598310292
1683689672706200800,5.236200927734375,0.023810060784965753,0.08680734583735465,-0.25020927105546
1683689672716171800,5.246171875,-0.06129983348473906,0.14984686259627342,-0.17677490927129982
1683689672726142700,5.256142822265625,-0.096081370139122,0.1891384240210056,-0.10325170015990734
1683689672736113700,5.26611376953125,-0.09280570946931839,0.155302789914608,-0.03936988735795021
1683689672746085600,5.276085693359375,-0.10652210013270377,0.09171382257938385,0.03504734798371792
1683689672756056800,5.286056884765625,-0.07965878925696016,0.05975859539210796,0.10513108416572213
1683689672766027800,5.29602783203125,-0.023954876083135603,0.0811234549820423,0.1309612526014447
1683689672775999700,5.305999755859375,0.0029192484475672243,0.12595628392100333,0.15049538963288067
1683689672785970700,5.315970703125,-0.0012042612232267857,0.11874620641171932,0.1673458405382931
1683689672795942000,5.32594189453125,-0.02860986228212714,0.019850363373756407,0.15195961696654559
1683689672805912800,5.335912841796875,-0.06704115361571311,-0.09577741875648497,0.13613222549855708
1683689672815884800,5.345884765625,-0.06670446900725364,-0.11227554909288882,0.12960866894870995
1683689672825855700,5.355855712890625,-0.02737783626914024,-0.057014265120029446,0.12342588866055011
1683689672835827000,5.365826904296875,-0.036829409094899894,-0.010982581785321235,0.12251900294870137
1683689672845798000,5.3757978515625,-0.09913725057840346,0.026738953843712804,0.151805887709558
1683689672855769900,5.385769775390625,-0.07086977199316025,0.056439095580577844,0.17015578339248894
1683689672865740800,5.39574072265625,-0.06723638392686844,0.05776654479205608,0.1256502867117524
1683689672875711700,5.405711669921875,-0.12788769037500022,0.05763794997632503,0.06405965358689426
1683689672885683000,5.415682861328125,-0.1516587343238294,0.05671908156573772,0.01570113473981619
1683689672895654700,5.425654541015625,-0.1329249538898468,0.05067804783582687,0.002616319978237152
1683689672905625900,5.4356259765625,-0.1749343959711492,0.011536708536744118,0.024077333419024943
1683689672915596800,5.4455966796875,-0.20381708384528754,-0.01462532220184803,0.09716580437496304
1683689672925567700,5.455567626953125,-0.16590967025533318,-0.013588380369544028,0.11398030718415975
1683689672935539700,5.465539794921875,-0.09142170776501297,0.0036953473865985868,0.11387100159078836
1683689672945511000,5.475510986328125,-0.07931158325448631,0.046485272321105,0.08440656830593943
1683689672955481900,5.48548193359375,-0.0649381899870932,0.08519698803126811,0.017223083610087633
1683689672965452500,5.49545263671875,-0.06970189725756645,0.17891045999526978,-0.03677461016774177
1683689672975424800,5.5054248046875,-0.12596812048926948,0.12631401131749154,-0.12431611549854278
1683689672985395700,5.515395751953125,-0.17384864656105636,-0.04938508541584015,-0.1329702543362975
1683689672995367000,5.525366943359375,-0.08336217381954193,-0.06365443378686904,0.004011865989863872
1683689673005337600,5.535337646484375,-0.05228182977065444,-0.05545476071834564,0.05901800615787506
1683689673015309800,5.545309814453125,-0.07166019171848893,-0.03055412821769714,0.036553807023912664
1683689673025280800,5.55528076171875,-0.05756240052208304,0.01702244647145271,0.009240706554055213
1683689673035252000,5.565251953125,-0.05005845463275909,0.1092266829162836,-0.014947393763065336
1683689673045223700,5.5752236328125,-0.0402710739813745,0.167921448469162,-0.04024959280192852
1683689673055195000,5.58519482421875,-0.06280468508973718,0.07255845573246479,-0.09867606280744075
1683689673065165800,5.595165771484375,-0.046876171334832906,-0.027464345508813857,-0.1282756667792797
1683689673075136800,5.60513671875,-0.026890491143614054,-0.12124036131501197,-0.08992387042269111
1683689673085108700,5.615108642578125,-0.12062661333084106,-0.16801263388395307,-0.02606909175813198
1683689673095079700,5.62507958984375,-0.15916984060630202,-0.1474292800605297,-0.021354922717809675
1683689673105051000,5.63505078125,-0.15272855551242828,-0.08651508489251136,-0.0336430341437459
1683689673115025400,5.645025390625,-0.1343419810809195,-0.04717676171660423,-0.03915156843215227
1683689673124997400,5.654997314453125,-0.13988091050758958,-0.022054010897874832,-0.04728475213572383
1683689673134968600,5.664968505859375,-0.1473522693015635,-0.00848491975069046,-0.04586728655323386
1683689673144939500,5.674939453125,-0.11106851139068603,0.0035188217759132383,-0.06401712961941958
1683689673154910200,5.68491015625,-0.054723085442930454,0.029454642543196675,-0.05304667666330933
1683689673164882400,5.69488232421875,-0.0439678826726973,0.027277883026003837,0.004897855044156313
1683689673174853400,5.704853271484375,-0.051073476894199846,-0.021685177585482596,0.013759499152749776
1683689673184824600,5.714824462890625,-0.09134440474510193,-0.06413023460507393,-0.029029987390339372
1683689673194795300,5.724795166015625,-0.13970993785485625,-0.06497019256055354,-0.05269844774752855
1683689673204767500,5.734767578125,-0.15301131797656417,-0.0007984569013118743,-0.0006496960803866386
1683689673214738400,5.744738525390625,-0.07182853402271866,0.057144613501429554,0.051842269309610126
1683689673224709600,5.754709716796875,-0.03837152397036552,0.08773498207628727,0.0576283053651452
1683689673234681300,5.764681396484375,-0.07435118436813354,0.07188625555932521,0.030090894620120524
1683689673244652500,5.774652587890625,-0.0332636794373393,0.05208323845863342,-0.021313713924586773
1683689673254623500,5.78462353515625,0.0040402153015136714,0.03717617670595646,-0.05428922407031059
1683689673264594400,5.794594482421875,-0.07010770157948136,0.009095160603523254,-0.043280192669481035
1683689673274566400,5.80456640625,-0.11876885663494467,0.002943652236461639,0.0004421908095479011
1683689673284537300,5.814537353515625,-0.10251096479520201,0.01449848095178604,0.05308861610889434
1683689673294508500,5.824508544921875,-0.06759060419201851,0.02618541161417961,0.07990589588582515
1683689673304479500,5.8344794921875,-0.07587430228218436,0.01837503012418747,0.07711480386257172
1683689673314451500,5.844451416015625,-0.09584653846994041,0.005169511592388153,0.0609834610119462
1683689673324422400,5.85442236328125,-0.0777776516854763,0.0024485621958971024,-0.017526304340362547
1683689673334393600,5.8643935546875,-0.041204263178259135,0.007356207981705666,-0.12256269595995545
1683689673344364300,5.8743642578125,-0.06736293291598558,-0.01260404550731182,-0.11539558080956339
1683689673354336500,5.88433642578125,-0.0823521199941635,-0.025231471890211105,-0.038032793535292146
1683689673364307500,5.894307373046875,-0.09007935324534773,-0.00019639935493469238,0.01507014335989952
1683689673374278400,5.9042783203125,-0.12481880432367325,0.02563946816921234,0.0028837387427687643
1683689673384249300,5.914249267578125,-0.10287570645436644,0.042649055159091946,0.016203239043056965
1683689673394221300,5.92422119140625,-0.04145429241657257,0.07413841840028762,0.03866583074182272
1683689673404192500,5.934192626953125,-0.016625994499772787,0.07074643787443638,0.030864217080175876
1683689673414163500,5.94416357421875,-0.05615151081085205,-0.004083469921350479,0.0275409178763628
1683689673424134400,5.954134521484375,-0.06630129503384233,-0.0619049597710371,0.04021116048768163
1683689673434106400,5.9641064453125,-0.03568286940827965,-0.046366029855608934,0.07319631524458527
1683689673444077600,5.97407763671875,-0.011693944925069808,-0.0029313772767782208,0.11482055740058421
1683689673454048500,5.984048583984375,-0.020252514433860776,0.01564648194313049,0.12439385690987109
1683689673464019500,5.99401953125,-0.019133739537000656,0.008527005326747893,0.08985328940451144
1683689673473991400,6.003991455078125,0.01250993748307228,0.015884382352232933,0.06102233171761035
1683689673483962600,6.013962646484375,-0.059483139451593156,0.040135611033439635,0.08193184875547885
1683689673493933300,6.023933349609375,-0.06101458680257201,0.06199556066393852,0.09784662624597548
1683689673503904300,6.033904296875,-0.006605097353458404,0.054444122371077534,0.07944909202903509
1683689673513876500,6.04387646484375,-0.02922843257188797,-0.0029296237111091613,0.08220072882473468
1683689673523847400,6.053847412109375,-0.02400631400942802,-0.03552607141137123,0.08947247339338063
1683689673533818400,6.063818359375,0.03301832637414336,-0.009403203639388083,0.0765085085324943
1683689673543790300,6.073790283203125,0.024464433040469885,0.04850479544997215,0.035572833162546155
1683689673553761500,6.083761474609375,-0.06260799347385763,0.07130933245420455,0.013543664444983004
1683689673563732500,6.093732421875,-0.10511442529186606,0.0415139136493206,-0.008865443500876426
1683689673573703400,6.103703369140625,-0.05080883460864424,-0.002846621602773666,-0.0058282677620649335
1683689673583675400,6.11367529296875,0.007458645442873239,-0.052398880279064176,0.027716566704213616
1683689673593646600,6.123646484375,0.038094606725126504,-0.07104629760384559,0.06511515398919582
1683689673603617500,6.133617431640625,0.07438420985490084,-0.04814706805348396,0.06876432414650917
1683689673613588200,6.143588134765625,0.041162031471729275,-0.004229600393772125,0.04088496809601783
1683689673623560400,6.153560546875,0.001875146222114563,0.03131692928373814,0.03445025887340307
1683689673633531400,6.163531494140625,0.027994068471342323,0.06590659662783145,0.06535276213735342
1683689673643502600,6.173502685546875,0.07795768442749977,0.08759878847599029,0.06893178966790438
1683689673653473300,6.183473388671875,0.00023015549406409262,0.06117956810593605,0.06827624836862087
1683689673663445500,6.193445556640625,-0.07551555197238921,0.02094341930747032,0.06995733332335949
1683689673673416400,6.20341650390625,-0.01896437431946397,0.009972527959942816,0.06770677791759372
1683689673683387400,6.213387451171875,0.07235927989855408,0.05729015945196152,0.0610159019768238
1683689673693358300,6.2233583984375,0.1332815122425556,0.07702829462289809,0.046399055342376226
1683689673703330600,6.23333056640625,0.1126851528070867,0.06611585546433925,0.048576253250986336
1683689673713301500,6.243301513671875,0.07057970300540328,0.05400631547570228,0.07565379139930009
1683689673723272400,6.2532724609375,0.0582068359054625,0.04907645785808563,0.11504764415472746
1683689673733243400,6.263243408203125,0.039202567967027424,0.04690963521301746,0.10453516409918666
1683689673743215400,6.27321533203125,0.0031013270162045955,0.04941431151032447,0.08363251519352197
1683689673753186600,6.2831865234375,-0.03600435644760728,0.07207037995457649,0.08922185963317751
1683689673763157200,6.2931572265625,-0.05146013812422752,0.1015320367604494,0.10848697046488523
1683689673773128400,6.30312841796875,-0.005690758987516164,0.10294716425538063,0.11817337495982647
1683689673783100400,6.313100341796875,0.03382876597419381,0.08389525778293609,0.12083908703774213
1683689673793071600,6.323071533203125,0.09816109902262687,0.0829319657087326,0.12375818935483693
1683689673803042300,6.333042236328125,0.14478124976977705,0.04716331771314144,0.10438435745164751
1683689673813014500,6.3430146484375,0.14337036005854606,0.013023732224106788,0.0930251974388957
1683689673822985500,6.3529853515625,0.16979074947237968,-0.02766191390752792,0.07853197718411684
1683689673832956400,6.362956298828125,0.15923676836267112,-0.05872457616925239,0.04280278441607952
1683689673842927400,6.37292724609375,0.14105550724491475,-0.09067162005007266,0.001100508587807417
1683689673852899300,6.3828994140625,0.14422025488615034,-0.08567103528380393,-0.04897796591967344
1683689673862870500,6.39287060546875,0.15452566806226967,-0.06175298407971858,-0.060627194920182224
1683689673872841500,6.402841552734375,0.1572363883256912,-0.05251520013511181,-0.05176145915836095
1683689673882812400,6.4128125,0.19000453933104872,-0.029334815555810925,0.00929009865373373
1683689673892784400,6.422784423828125,0.269385096168518,-0.0211316353559494,0.08891133237928152
1683689673902755600,6.432755615234375,0.33404490760564803,-0.05123801980614662,0.14408990650475023
1683689673912726500,6.4427265625,0.41152094599604605,-0.0973714099496603,0.17376403701752424
1683689673922697200,6.452697265625,0.4441713158406317,-0.08541267660856247,0.1512555603504181
1683689673932669400,6.46266943359375,0.3778255971431732,-0.05626081640422344,0.10652005430608988
1683689673942640400,6.472640380859375,0.3053824383534491,-0.06777648215293884,0.04685293658971786
1683689673952611300,6.482611328125,0.25528175201416015,-0.09896773923039436,-0.010531330886483193
1683689673962582300,6.492582275390625,0.202854814684391,-0.1077495961010456,-0.06164543205201625
1683689673972554500,6.502554443359375,0.14424261284843087,-0.11642156285643578,-0.10627104798108339
1683689673982525400,6.512525390625,0.08332111115679144,-0.13619067768752574,-0.13019742862209677
1683689673992496400,6.522496337890625,0.055310968333482737,-0.1145335571527481,-0.14202157579809427
1683689674002467300,6.53246728515625,0.0845920078754425,-0.004007482075691223,-0.16021598865836859
1683689674012439600,6.542439453125,0.10193024229779839,0.13068740409612656,-0.14512772511988878
1683689674022410500,6.552410400390625,0.025763532940298317,0.25917116066813467,-0.13317659056335687
1683689674032381400,6.56238134765625,-0.07545125456452369,0.2875526210218668,-0.10163491261303424
1683689674042352400,6.572352294921875,-0.19356573894396423,0.22041735938191412,-0.027060879274457692
1683689674052324600,6.58232470703125,-0.21438144021853803,0.09477554823756218,0.0371001888602972
1683689674062295600,6.592295654296875,-0.146910224622488,-0.03563596152663231,0.08166063059866428
1683689674072266200,6.602266357421875,-0.14004545341953634,-0.11995908933281897,0.08141220879554747
1683689674082237400,6.612237548828125,-0.12675459469184278,-0.13470599208772183,0.025845804396271703
1683689674092209400,6.62220947265625,-0.10418050544261932,-0.10236498045325279,-0.088225980463624
1683689674102180600,6.6321806640625,-0.09355404361858963,-0.03518412610590458,-0.18344065077081323
1683689674112147500,6.6421474609375,-0.04870017189159989,-0.011370119798183441,-0.23462562521547078
1683689674122118400,6.652118408203125,-0.024058920979499816,-0.022840777361392974,-0.23515578656941652
1683689674132090400,6.66209033203125,-0.017946137187629937,-0.010407412245869637,-0.19357772164270282
1683689674142061600,6.6720615234375,0.009947247388213872,0.031417467048764226,-0.13461495280340313
1683689674152032300,6.6820322265625,0.04093509084805846,0.06597498568892479,-0.037606823208183045
1683689674162003200,6.692003173828125,0.010312135177850722,0.06733633717000484,0.0694686730235815
1683689674171975400,6.701975341796875,0.010872107148170471,0.030092940446734426,0.13660744179487228
1683689674181946400,6.7119462890625,0.052958852249383924,-0.02255553067922592,0.16335282537937162
1683689674191917300,6.721917236328125,0.07280453944802284,-0.041401685446500774,0.17144202381074428
1683689674201888300,6.73188818359375,0.02873144283518195,-0.10148936666250229,0.17663038623407482
1683689674211860500,6.741860595703125,-0.04945873517394066,-0.18845628697574138,0.13680997862964867
1683689674221831400,6.75183154296875,-0.031496377503871915,-0.1768219632834196,0.0661398208618164
1683689674231802400,6.76180224609375,-0.062131023611873386,-0.12111527363061904,-0.01755845304429531
1683689674241773300,6.771773193359375,-0.14892550996765494,-0.057016603207588196,-0.10478373203277587
1683689674251745500,6.78174560546875,-0.20759894047155975,-0.023811083698272704,-0.14099953927397726
1683689674261716500,6.791716552734375,-0.2330244736291468,-0.026636662513017655,-0.1513797712519765
1683689674271687200,6.801687255859375,-0.21970190458893774,-0.059784898877143854,-0.11804302657842636
1683689674281659400,6.811659423828125,-0.14870470682382583,-0.052799862295389174,-0.08457388769686222
1683689674291630300,6.82163037109375,-0.11915128008127211,-0.030415012007951735,-0.09613251580446958
1683689674301601500,6.8316015625,-0.176581578656286,-0.016720248654484748,-0.14972878917455673
1683689674311572200,6.841572265625,-0.20762553621754049,-0.05556815796494484,-0.15968436599969862
1683689674321544400,6.85154443359375,-0.17883681023716924,-0.10434943226873875,-0.07859072163403034
1683689674331515400,6.861515380859375,-0.11652794584035872,-0.10964929224252701,0.05367635286897421
1683689674341486300,6.871486328125,0.00035889644026756285,-0.0839163005709648,0.16653905420005322
1683689674351457300,6.881457275390625,0.09041384589672088,-0.027467852640151978,0.22093583029806613
1683689674361429500,6.891429443359375,0.09777180744409561,0.05343348402380943,0.20459698217660188
1683689674371400400,6.901400390625,0.047444326611608266,0.16622399690151213,0.12697861270606517
1683689674381371400,6.911371337890625,0.00885068432316184,0.25942951934337616,0.048384822332113976
1683689674391342300,6.92134228515625,0.031341040811687704,0.23890929388403892,0.05335135869830847
1683689674401314600,6.931314453125,0.08544774792194366,0.16558277638852595,0.16049539012163877
1683689674411285500,6.941285400390625,0.1290716394625604,0.11764438264966011,0.23496041012778876
1683689674421256200,6.951256103515625,0.1732709928035736,0.10641396358311175,0.2544309804037213
1683689674431227400,6.961227294921875,0.11655001154169439,0.07055997539162635,0.19727993716150521
1683689674441199400,6.971199462890625,0.1479356221474707,0.05718319194614887,0.13733429476469755
1683689674451170600,6.981170654296875,0.2504500940740108,0.054027358263731,0.1288069971770048
1683689674461141200,6.991141357421875,0.1946713620983064,0.04233633594810962,0.12530059649124742
1683689674471112400,7.001112548828125,0.15527458673343061,0.04360007227361202,0.10685922313258052
1683689674481084400,7.01108447265625,0.1747473489664495,0.027198972570896148,0.07161416061967611
1683689674491055600,7.0210556640625,0.153358523979038,0.029169395861029623,0.06277779708281159
1683689674501026300,7.0310263671875,0.14002806389331818,0.07902852852940559,0.058476154366135596
1683689674510997200,7.040997314453125,0.15079276514425874,0.1245937633961439,0.000761047500371933
1683689674520969500,7.050969482421875,0.1583940339282155,0.14114450070261955,-0.0781786337018013
1683689674530940400,7.0609404296875,0.13271934831514953,0.1469160698413849,-0.18002748132646082
1683689674540911400,7.070911376953125,0.11269099802598356,0.1388192726254463,-0.3030686084531247
1683689674550882300,7.08088232421875,0.1081971937380731,0.08834639197289944,-0.3578476618669927
1683689674560854500,7.0908544921875,0.14619827696084975,-0.02294891391098499,-0.3032020255744457
1683689674570825200,7.1008251953125,0.216588741004467,-0.16279869862794874,-0.13830430884063244
1683689674580796400,7.11079638671875,0.4662742804467678,-0.2783013930737972,0.0592471387386322
1683689674590767400,7.120767333984375,0.8968399725221097,-0.35045302157104014,0.23299480914324522
1683689674600739600,7.130739501953125,1.027381392276287,-0.2799409769743681,0.4155360268563032
1683689674610710300,7.140710205078125,0.7470959857784211,-0.09627017070949077,0.6038483753167092
1683689674620681200,7.15068115234375,0.5566309893287718,0.11186813733577727,0.721283645260334
1683689674630652400,7.16065234375,0.5055623347401619,0.2502040103584528,0.7311439450174569
1683689674640624400,7.170624267578125,0.400672219723463,0.3528016305238008,0.6745768391430378
1683689674650595300,7.18059521484375,0.3394179789461195,0.07598550757169723,0.4490419906169176
1683689674660566300,7.190566162109375,0.30228534912094474,-0.14634908360838889,0.20692308703660964
1683689674670537500,7.200537353515625,0.5144026437997817,-0.16407529443502425,0.048154374577105044
1683689674680509400,7.210509521484375,0.741026456606388,-0.1595201153486967,-0.02875380079746246
1683689674690480400,7.22048046875,0.7081671201862394,-0.05712298619151115,0.016571195572614668
1683689674700451300,7.230451416015625,0.6070505323588847,0.1341968735218048,0.03670943597704172
1683689674710422300,7.24042236328125,0.49051922551766036,0.22652561312913894,-0.009731704941391944
1683689674720394500,7.25039453125,0.3758205409310758,0.18296295025646686,-0.03841360954642296
1683689674730365200,7.260365234375,0.36043022570610045,0.10472703340947627,-0.05768062007427215
1683689674740336400,7.27033642578125,0.4612943000771105,0.06930442237257957,-0.08050590760558843
1683689674750308400,7.280308349609375,0.5972456160508096,0.09527239184379577,-0.09491320314258336
1683689674760279300,7.290279296875,0.7666169710673392,0.18765490746498106,-0.08416910628825426
1683689674770250200,7.300250244140625,0.8734523749329149,0.3130453741967678,-0.08512684540450573
1683689674780221400,7.310221435546875,0.9173862092055379,0.46159109106659885,-0.1528448753684759
1683689674790193400,7.320193359375,1.0160862374104558,0.5337485647827387,-0.24888532897531984
1683689674800164400,7.330164306640625,1.0734127833500504,0.5732406172156334,-0.3576061081960797
1683689674810135300,7.34013525390625,1.1112931628026068,0.5926122571617365,-0.39008009856045245
1683689674820106200,7.350106201171875,1.0269884474359452,0.5872539449989795,-0.3111497697085142
1683689674830077400,7.360077392578125,0.9003752339761704,0.49700961045026776,-0.19704817423224447
1683689674840049200,7.370049072265625,0.7237548576794565,0.18839608122110366,-0.16290712743848562
1683689674850020400,7.380020263671875,0.5449168783985078,0.050641807478666305,-0.08632131588608026
1683689674859991300,7.3899912109375,0.39079014652594923,-0.06051204410791397,-0.022290742263197896
1683689674869963500,7.399963623046875,0.24585005293264983,-0.2350058567047119,-0.02570435009896755
1683689674879934200,7.409934326171875,0.14639686827287077,-0.3688970252782106,0.02610825472474098
1683689674889905400,7.419905517578125,0.24982450952157376,-0.6401414855778217,0.026314006429910657
1683689674899876400,7.42987646484375,0.2966914746366441,-0.8037357184976339,0.10134995819181203
1683689674909848600,7.4398486328125,0.4122631426654756,-0.9646154317617416,0.1389548817038536
1683689674919819300,7.4498193359375,0.5160065718650818,-1.1495499743521214,0.13377660228312016
1683689674929790500,7.45979052734375,0.5727366132162511,-1.2934212696701288,0.0894525996491313
1683689674939761400,7.469761474609375,0.3803765968002379,-1.431045195031166,-0.102884912674129
1683689674949733400,7.4797333984375,0.05389291822910309,-1.5133903007626532,-0.463366284045577
1683689674959704300,7.489704345703125,-0.30677579240798947,-1.4287363335669039,-0.8817670526832342
1683689674969675300,7.49967529296875,-0.5209888903222978,-1.3504817120194434,-1.0941031046792864
1683689674979646500,7.509646484375,-0.4596281204305589,-1.1921101821839808,-0.8616337807148694
1683689674989618200,7.5196181640625,-0.26687384399995207,-0.9778595287382602,-0.10037146854847669
1683689674999589400,7.52958935546875,0.015585545536130665,-0.7056301490545273,0.8727408656626939
1683689675009560300,7.539560302734375,0.4367500797986984,-0.4580056337952614,1.5977739265844224
1683689675019531500,7.549531494140625,1.0333470226824284,-0.3552092761874199,2.062002964939177
1683689675029503200,7.559503173828125,1.6936688342407344,-0.3733399761617183,2.26862151607126
1683689675039474400,7.569474365234375,2.0325252337813375,-0.4897404962301254,2.1534368015334007
1683689675049445400,7.5794453125,2.0496029175713657,-0.7173024666696787,1.8165671918958424
1683689675059416300,7.589416259765625,1.7651695976138113,-0.9616454760402441,1.4150021149858831
1683689675069388300,7.59938818359375,1.451534148569405,-1.2009341246306895,1.0607099536433815
1683689675079359200,7.609359130859375,1.1857377245426177,-1.4447989950954914,0.7280953711017966
1683689675089330400,7.619330322265625,0.9452923071324825,-1.6532126129508018,0.4807692542672157
1683689675099301400,7.62930126953125,0.7559718045428395,-1.6367033766984938,0.43913346780389545
1683689675109272800,7.63927294921875,0.7014004025302827,-1.4049714270979166,0.5722600817456841
1683689675119243800,7.649243896484375,0.6415595356822014,-1.033198554122448,0.7345397249355912
1683689675129214700,7.659214599609375,0.5465443334698676,-0.6101987672567367,0.8667933554351329
1683689675139186000,7.66918603515625,0.6212088215708732,-0.07757306902408599,1.1157274919882416
1683689675149158000,7.679157958984375,1.211506079788506,0.4722434179842472,1.499981368613243
1683689675159128800,7.68912890625,1.9554244584441183,0.8394622809171676,1.7730720413014291
1683689675169099800,7.699099853515625,2.021554780825227,1.0883084469258784,1.8123448980256913
1683689675179071000,7.709071044921875,1.3657573148235678,1.4558131410628556,1.6538433120697735
1683689675189042700,7.719042724609375,0.1749647911094129,1.8962094684094188,1.4800497566968203
1683689675199014000,7.729013916015625,-0.6910933819189667,2.1458763031512498,1.490309577165544
1683689675208984800,7.73898486328125,-0.43334114813804625,2.2332453745245933,1.771829932285845
1683689675218956000,7.7489560546875,0.641327918883413,2.3149089277327057,2.3870216855242847
1683689675228927700,7.758927734375,1.7222526852987705,2.246914418914914,2.9673838251829148
1683689675238899000,7.76889892578125,2.2374629922196267,1.737206654933095,2.7634257254317403
1683689675248870000,7.778869873046875,2.6280466563880442,1.3155746492892504,2.1186218010008333
1683689675258840800,7.7888408203125,2.3833539567969737,1.5446306576788424,1.331903268277645
1683689675268812000,7.79881201171875,1.331545540881157,2.172034242236614,0.312278481477499
1683689675278783700,7.80878369140625,-0.7848376143474132,2.4859511385709046,-1.0084431753113865
1683689675288755000,7.8187548828125,-2.9484020613372324,1.869656977048516,-2.502195001885295
1683689675298726000,7.828725830078125,-3.305228125071525,0.3749894969344139,-3.6717744955703613
1683689675308697900,7.83869775390625,-1.8049205932438372,-1.2916875777453183,-3.69646996088773
1683689675318668800,7.848668701171875,0.39707967512421305,-2.4108844994097947,-2.9661548679098484
1683689675328640000,7.858639892578125,0.9856278246521949,-2.321946571284532,-2.8221748515203595
1683689675338611000,7.86861083984375,-0.5234077880322933,-1.0360697256445883,-3.1058029925748705
1683689675348582000,7.878581787109375,-2.319378328231722,0.3347825742304325,-3.2862992604568597
1683689675358553900,7.888553955078125,-3.23289471026659,1.0023878207951784,-3.39980289003998
1683689675368524800,7.89852490234375,-3.3626527245581146,1.3819886109173296,-3.216538911010325
1683689675378496000,7.90849609375,-3.1268530871272087,1.703246517664194,-2.4782769506812095
1683689675388467000,7.918467041015625,-3.1374317642867564,1.739921759110689,-1.8072800158515572
1683689675398439000,7.92843896484375,-3.4114380905151367,1.5694330905020235,-1.6012188063412904
1683689675408409900,7.938409912109375,-3.4878234110593795,1.2375427305817603,-1.827168665409088
1683689675418381000,7.948381103515625,-3.572031095792353,0.7309048755645752,-2.4287980495020745
1683689675428352000,7.95835205078125,-3.127870155215263,0.47835927051603794,-2.5837740916803478
1683689675438324000,7.968323974609375,-2.7555215281784533,0.42112288707792755,-2.154400093607604
1683689675448295000,7.978294921875,-2.405076105391979,0.5054752409785985,-0.9243801597461104
1683689675458265900,7.988265869140625,-1.989906719890982,0.3665934245109558,0.2788040818989277
1683689675468236800,7.99823681640625,-1.4523625622175633,0.08340309035181999,1.1694172888606786
1683689675478208800,8.008208740234375,-0.8781530269045382,-0.13774901304543016,1.7702660439699887
1683689675488180000,8.018179931640624,-0.2445043374121189,-0.2845908486068249,2.049459417447448
1683689675498151000,8.02815087890625,0.17184826652407645,-0.31063246783614157,2.0483947108253835
1683689675508121900,8.038121826171874,0.29930794074535366,-0.3053448828220367,1.7285837880164383
1683689675518093800,8.04809375,0.29478147629685697,-0.12744915282726288,1.4807362776562571
1683689675528065000,8.05806494140625,0.2596925541937351,0.07235913376808166,1.29861270083338
1683689675538036000,8.068035888671876,0.1934392630200833,0.18075696464478969,1.1671870455905795
1683689675548006700,8.078006591796875,0.04668101408891379,0.14444763390123844,1.0408806330576539
1683689675557979000,8.087978759765624,-0.17678170433826743,0.02000233906507492,0.8913879907265305
1683689675567949800,8.09794970703125,-0.30374687304086984,-0.1714887855619192,0.7998682294145226
1683689675577921000,8.107921142578125,-0.23750658747926354,-0.35827860063016415,0.8546928755357861
1683689675587891700,8.1178916015625,-0.2469488810200244,-0.3777969555705786,1.0993792915165423
1683689675597864000,8.127864013671875,-0.31759529258608815,-0.4016904568552971,1.105032787233591
1683689675607835000,8.1378349609375,-0.5936521216034889,-0.37092823884487147,0.645713440491259
1683689675617806000,8.14780615234375,-0.7626491634149104,-0.2166407634526491,0.36136399942487474
1683689675627776800,8.15777685546875,-0.6468308271486312,-0.4897065939605236,-0.0652776510745287
1683689675637749000,8.1677490234375,-0.7128302166264504,-0.9556032732665538,-0.35104105059206486
1683689675647720000,8.177719970703125,-0.8093512933570891,-1.0661135662525891,-0.5316866638168692
1683689675657691000,8.18769091796875,-0.5543196436464786,-1.0543313585221767,-0.8466764500796794
1683689675667661800,8.197661865234375,-0.46569096413347866,-0.8037088304907083,-1.0610723572149872
1683689675677633800,8.2076337890625,-0.5173415467958897,-0.5015063373476266,-1.398797706899047
1683689675687605000,8.21760498046875,-0.5575743345934897,-0.22943594761788844,-1.5218904180824755
1683689675697575700,8.22757568359375,-0.46512394136786456,0.13669219746887684,-1.413922503055632
1683689675707547000,8.237546875,-0.47406599376890807,0.31203298228383064,-1.316532096144557
1683689675717518800,8.247518798828125,-0.3213011978993192,0.22709201484024524,-1.1107087870433925
1683689675727490000,8.257489990234374,0.05050736744403839,-0.2528448802560568,-0.751095722939074
1683689675737460700,8.267460693359375,0.369215662773326,-0.7960276283383368,-0.42845337609648704
1683689675747432000,8.277431884765624,0.4403132521729916,-0.564279896646738,-0.1722624002829194
1683689675757404000,8.28740380859375,0.17395722150206566,0.08222001804709433,-0.16585662489384412
1683689675767375000,8.297375,-0.01855509939882904,0.5580640908718109,-0.10042582908421754
1683689675777345800,8.307345703125,-0.5323872133016586,0.308296718364954,-0.2782379724487662
1683689675787316700,8.317316650390625,-0.43659920008592307,-0.24103286190927029,-0.12490122191011906
1683689675797289000,8.3272890625,-0.3510170851945877,-0.7597954544842243,0.37882016113847494
1683689675807260000,8.337260009765625,-0.5643932208281011,-1.1473135936021803,0.7987155522480607
1683689675817230800,8.34723095703125,-0.7424339122515171,-1.3234768007159232,0.9764467393308878
1683689675827201800,8.357201904296875,-0.7274913407940418,-0.9553753097295761,1.1784291550949215
1683689675837173000,8.367173095703125,-0.8857681050181389,-0.4165899198234081,1.1383657325148582
1683689675847145000,8.37714501953125,-1.1948258708834647,0.29330840806961056,1.3631918482497334
1683689675857116000,8.387115966796875,-1.498612418347597,1.0477467194348573,1.8453779835775495
1683689675867086800,8.3970869140625,-1.8778420370697975,0.9924187999665737,1.7727070073813198
1683689675877057800,8.407057861328125,-1.8835703515887259,0.5460469053417444,1.4188646356329322
1683689675887029800,8.41702978515625,-1.7963842355668544,0.32143092522621153,1.380221893505752
1683689675897000700,8.427000732421876,-1.7612275819897651,0.28046003241240974,1.5835086698666214
1683689675906972000,8.436971923828125,-1.6623323234736918,0.3341010217070579,1.9060069320634005
1683689675916942800,8.44694287109375,-1.3653963725566862,0.6182838740348816,2.1314754373550415
1683689675926914800,8.456914794921875,-0.8427063774049282,0.9710498487234115,2.2656828322708606
1683689675936885800,8.4668857421875,-0.4018939435381442,1.2977081532090902,2.4262243996217845
1683689675946857000,8.47685693359375,-0.16116444848962128,1.2734861506223678,2.5695310467943546
1683689675956828000,8.486827880859375,0.21660138129033146,0.830033942836523,2.5958523597478864
1683689675966800000,8.4967998046875,0.36800789441876114,0.3135030548363924,2.4624390378192067
1683689675976770800,8.506770751953125,0.3078804657142609,-0.15295944165885447,2.1859093305930495
1683689675986741800,8.51674169921875,0.3491429618857801,-0.47878129532039165,1.7399562459021807
1683689675996713000,8.526712890625,0.4395489167369902,-0.6577905395150184,1.317222124235332
1683689676006684700,8.5366845703125,0.34025238394364715,-0.8471773853391409,0.9381117479786276
1683689676016656000,8.54665576171875,0.33561595631465313,-0.7993138104021549,0.8699699396446346
1683689676026626800,8.556626708984375,0.3964855816885829,-0.6192553494155406,0.9365843922808765
1683689676036598000,8.566597900390626,0.32691008728966114,-0.2912251720547676,1.0561354853346943
1683689676046569700,8.57656982421875,0.14792261653542518,0.07718143935799598,0.9970525972470641
1683689676056541000,8.586541015625,0.08287702065110206,0.3776607619702816,0.7159522211045026
1683689676066512000,8.596511962890625,0.1459001707971096,0.5983078384548425,0.268909587611258
1683689676076482800,8.60648291015625,0.24712431065216658,0.6503834781289101,-0.27139672825187444
1683689676086454800,8.616454833984376,0.5578220988094806,0.6236918705582618,-0.7630074022680521
1683689676096425700,8.62642578125,0.8130372153282165,0.43914837311208244,-1.3368220199793577
1683689676106397000,8.63639697265625,1.067929529633373,0.14053776698112486,-1.9044623329699037
1683689676116369400,8.646369384765626,1.068764080761373,-0.2771785265237093,-2.46656371653378
1683689676126341600,8.656341552734375,0.9910814138829708,-0.663039546084404,-2.8025217642843723
1683689676136312600,8.6663125,0.9527147122181951,-0.8104577202290296,-2.903803333415091
1683689676146283300,8.676283203125,0.9737819040358066,-0.6756558665513992,-2.8403502674192187
1683689676156254500,8.68625439453125,1.0430769740581511,-0.3044178311049938,-2.7893057243585586
1683689676166226400,8.696226318359376,1.2512322332382202,0.2061404122263193,-2.9427579179704186
1683689676176197600,8.70619775390625,1.4956475771926343,0.8868243360728025,-3.262769624048471
1683689676186168300,8.716168212890626,1.7895114271879196,1.6776386136770247,-3.4806133335500955
1683689676196139500,8.726139404296875,2.1433681197226044,2.345606263813376,-3.496366490738094
1683689676206111500,8.736111572265624,2.5595465361356733,2.62395091150701,-3.4061695024624465
1683689676216082700,8.746082763671875,2.9750410619378087,2.343614797735214,-3.4258716895371673
1683689676226053400,8.756053466796875,3.1637071922719477,1.4708067120552062,-3.6384865584746002
1683689676236024600,8.766024658203126,2.7616496556699275,-0.04587269338071346,-3.9198534765988584
1683689676245995500,8.77599560546875,1.8581762364827095,-1.6215689359307288,-3.741004683662951
1683689676255967700,8.7859677734375,0.7178527940288185,-2.770309347465634,-2.880443792876601
1683689676265938400,8.7959384765625,-0.3413656058825552,-3.3904414797157045,-1.7382465193748473
1683689676275909400,8.805909423828124,-1.3968100402131676,-3.7753134882390498,-0.8031210937306285
1683689676285880600,8.815880615234375,-2.3667855377033353,-4.047476232427359,0.03164426154196262
1683689676295852500,8.8258525390625,-2.9776226028636095,-4.319192986413836,0.9303718013763427
1683689676305823500,8.835823486328126,-3.146070997816324,-4.6349458660036325,1.855093614166975
1683689676315794400,8.84579443359375,-3.013333090931177,-4.633070135259628,2.6452678403019902
1683689676325765600,8.855765625,-2.993620966984331,-4.456241157713532,3.1721707769736645
1683689676335737300,8.8657373046875,-3.0868542542159556,-4.120038779813051,3.398287224780023
1683689676345708500,8.87570849609375,-3.0466555148184296,-3.6105671626746654,3.27891382638067
1683689676355679500,8.885679443359376,-2.6901427548170087,-2.8765187283873557,2.715562442755699
1683689676365650400,8.895650390625,-2.0887810817494987,-1.8874346258014438,1.9419807472422719
1683689676375622400,8.905622314453124,-1.4329963290989398,-0.8953244533926248,1.258135144494474
1683689676385593300,8.91559326171875,-0.9617861996851861,-0.06930266880691051,0.8473761227816343
1683689676395564500,8.925564453125,-0.8178116631884127,0.6230231775164604,0.7928057436823844
1683689676405535500,8.935535400390625,-0.7717267152965068,1.2808429431259631,0.8560510121464728
1683689676415507500,8.945507568359375,-0.5604688869912177,2.0825205600500105,1.1558563810199498
1683689676425478400,8.955478515625,-0.15544782440848648,3.064803165927529,1.6854200613334773
1683689676435449600,8.96544970703125,0.41671259635500607,4.062986520770192,2.4025299280405044
1683689676445420500,8.975420654296874,1.1530991912662982,4.869969842886924,3.061039721740782
1683689676455392500,8.985392578125,1.7863924183845519,5.326575546756386,3.4604093344330784
1683689676465363500,8.995363525390625,1.5867442907869815,5.033339619401097,3.4955046132117507
1683689676475334400,9.00533447265625,0.6703355483114719,4.317141899102926,3.329934404043853
1683689676485305600,9.0153056640625,1.1183388435304165,4.465538562890887,3.1513562447428702
1683689676495277300,9.02527734375,3.157856128156185,5.7130532369107,2.671289293526113
1683689676505248500,9.03524853515625,4.1384208241999145,6.625477878186106,1.7002996505573391
1683689676515219500,9.045219482421874,2.200823114347458,6.112744628903269,0.39878275271505115
1683689676525190700,9.055190673828125,-1.3422142344117163,3.8083810605823993,-1.0089052398651839
1683689676535161600,9.06516162109375,-2.890670003336668,0.48860009402334686,-1.9786866760879753
1683689676545133600,9.075133544921876,-1.9270447516560554,-2.317432308730483,-2.14156720778048
1683689676555104500,9.0851044921875,-0.6079517920475452,-4.099609739768505,-1.6177797727808356
1683689676565075500,9.095075439453124,0.13733341798186302,-4.889172556006908,-0.8059905116870999
1683689676575047400,9.10504736328125,0.2604500214975327,-5.000364986038208,-0.6719438602909446
1683689676585018400,9.115018310546875,0.03171725371293723,-4.508018691223859,-1.5686225047715008
1683689676594989600,9.124989501953126,-0.38395715870074926,-3.335677039349079,-2.959877979597449
1683689676604960500,9.13496044921875,-1.065261990924552,-2.122802301555872,-4.478545343980193
1683689676614931500,9.144931396484376,-0.8577005329191684,-0.8805869029879569,-5.360313565707206
1683689676624903400,9.1549033203125,-0.16777297990918158,0.34297231042683124,-5.276198527693748
1683689676634874600,9.16487451171875,0.5826034888446331,1.276890990629792,-3.955860025003552
1683689676644845600,9.174845458984375,0.9350631740629672,1.3695517386704683,-2.3382351505234835
1683689676654816500,9.18481640625,0.9845033506669103,0.6271253521382808,-1.3236436817154287
1683689676664788500,9.19478857421875,0.9548996550418436,-0.1411462542682886,-0.6461074082449079
1683689676674759400,9.204759521484375,1.1047169992826877,-0.5627174696356058,-0.014522884740680456
1683689676684730600,9.214730712890624,1.211096768335253,-0.7022779160171747,0.5841175466693938
1683689676694701300,9.224701416015625,0.9675799806557596,-0.6988198845177889,1.1973290858760475
1683689676704673500,9.234673583984375,0.662444502800703,-0.5194289475291967,1.8925633669920265
1683689676714644500,9.24464453125,0.42094796890243885,-0.19665771360993384,2.581731187675893
1683689676724615700,9.25461572265625,0.17609437966123223,0.16272446434795856,3.148790778169036
1683689676734586400,9.26458642578125,0.19871625357493758,0.47568332930505275,3.385974271173775
1683689676744558600,9.27455859375,0.3363372563265264,0.6153045659631491,3.080364892196655
1683689676754529500,9.284529541015624,0.29245632128491994,0.5261071101188659,2.2623092641845344
1683689676764500700,9.294500732421875,0.1157284660257399,0.341301746866107,1.2559776741996407
1683689676774471400,9.304471435546875,-0.09826178291812539,0.07521510772109032,0.24706381263658403
1683689676784443600,9.314443603515626,-0.2486135262966156,-0.0650765755444765,-0.5467179364711046
1683689676794414600,9.32441455078125,-0.7965044520698488,-0.0640922406822443,-1.0727360531322658
1683689676804385500,9.334385498046874,-1.54339950844869,0.0615519085496664,-1.3600389371767638
1683689676814356500,9.3443564453125,-1.9298845051266251,0.38376258597671986,-1.4462204062007367
1683689676824328400,9.354328369140624,-2.0034568140767512,0.726029963004589,-1.5524926232255993
1683689676834299600,9.364299560546876,-1.6339268977224826,0.7812018151283263,-1.74714674192816
1683689676844270600,9.3742705078125,-1.6116659660756587,0.5451145929276943,-1.953490129380673
1683689676854241500,9.384241455078126,-2.0601604058124123,0.3538578615784645,-1.9478898251555858
1683689676864213500,9.394213623046875,-2.621674198746681,0.3624012335181236,-1.788989303009957
1683689676874184700,9.404184814453124,-3.091351565635204,0.5820546227902174,-1.7913538401842117
1683689676884155400,9.4141552734375,-3.5727357369303703,0.8954466184675693,-1.907353524366766
1683689676894126300,9.424126220703124,-3.8076375487387177,1.1277630899578333,-2.0739698815867302
1683689676904098600,9.4340986328125,-3.923595877997577,1.4030962808758018,-2.19810479529947
1683689676914069500,9.444069580078125,-3.850350901305675,1.876815032109618,-2.065783506391197
1683689676924040400,9.45404052734375,-3.385453462170064,2.5074042609661817,-1.8177781751208006
1683689676934011400,9.464011474609375,-2.9914520985126494,3.3792847104072568,-1.568666928435117
1683689676943983600,9.473983642578125,-2.8645605795681477,4.055083200299739,-1.5622067925103007
1683689676953954600,9.48395458984375,-2.8338620744436978,4.178609042203426,-1.4627861949458718
1683689676963925500,9.493925537109375,-3.1345643921568986,3.544057923978567,-1.3263535251960157
1683689676973896400,9.503896484375,-3.560579727451503,1.8405588928580283,-1.1705150940347462
1683689676983868700,9.51386865234375,-3.2979657328531142,-0.9205711228519677,-0.981566055105999
1683689676993839600,9.523839599609374,-2.5394240778222676,-4.007759723588824,-0.876519215157628
1683689677003810300,9.533810302734375,-1.9979893424510955,-6.666076430556178,-0.6722277917988598
1683689677013781500,9.543781494140624,-1.9374387198984622,-7.9815388516426085,-0.29848420327231284
1683689677023753500,9.55375341796875,-1.70163148368299,-8.814536320459842,0.08400847236644476
1683689677033724700,9.563724609375,-1.0445046687737107,-8.699096754378079,0.4895805564280599
1683689677043695400,9.5736953125,-0.027977555727958677,-6.275735635232925,0.8008319598801433
1683689677053666600,9.58366650390625,0.9888426950454712,-2.7777164088517425,1.0976796479918063
1683689677063638500,9.593638427734374,1.7285972320199012,-0.633018501830101,1.7920621345840393
1683689677073609500,9.603609375,2.2372715613007546,0.5297340684443712,2.5148136604398488
1683689677083580400,9.613580322265625,2.524154612497985,1.4213608363628387,3.1105653846710917
1683689677093551400,9.62355126953125,2.85277866409868,2.2763708150237796,3.3468662496224044
1683689677103523600,9.633523681640625,3.5722590593293306,2.879393991562724,2.866548246254027
1683689677113494300,9.643494384765624,4.1860093815878034,2.9910458557993174,1.509723156557232
1683689677123465500,9.653465576171875,3.810393277187645,2.4822774184942245,-0.295417801439017
1683689677133436400,9.6634365234375,2.881726526163518,1.695939409521222,-2.019595025059581
1683689677143408600,9.67340869140625,1.8949775885269045,1.3918851510316133,-3.235893307560682
1683689677153379300,9.68337939453125,1.2712623370930551,1.6664830134123563,-3.7880987355321643
1683689677163350500,9.6933505859375,1.1323507100090384,2.327090948435664,-3.5612767698049543
1683689677173321500,9.703321533203125,1.4233198614761233,3.0742332575738427,-2.3022879310905933
1683689677183293700,9.713293701171875,1.9764283757671712,3.632058863514662,-0.08466448858976364
1683689677193264400,9.723264404296875,2.6167572006106377,3.487995845016837,2.2836707627736033
1683689677203235300,9.7332353515625,3.1840546915128827,2.6078806511938573,3.8961481913626193
1683689677213206500,9.74320654296875,3.447686923243105,1.4347504792898893,4.758288752555847
1683689677223178800,9.7531787109375,3.2192610294505952,0.33808687647283076,5.185943087229132
1683689677233149400,9.7631494140625,2.6033573285505174,-0.5951555119037628,5.3175616346955294
1683689677243120400,9.773120361328125,1.8180825648948549,-1.312193774679303,5.097953253608941
1683689677253091600,9.783091552734374,1.2406205305919051,-1.7033944017022846,4.637622976258397
1683689677263063600,9.7930634765625,1.0464213160499929,-1.7733417981535196,4.054828933277726
1683689677273034500,9.803034423828125,1.030896706920862,-1.6507307330071925,3.4050732316583394
1683689677283005400,9.81300537109375,1.0608533076368272,-1.4707821621358395,2.7375124087572096
1683689677292976600,9.8229765625,1.0947934250310063,-1.3031202413856982,2.1070016519643366
1683689677302948400,9.8329482421875,1.1543094438388943,-1.1790391036868095,1.460797943738103
1683689677312919600,9.84291943359375,1.1799302073076368,-1.0028542692631484,0.7119462003335356
1683689677322890500,9.852890380859375,1.1850034189186989,-0.7122504439771175,-0.16851327688246964
1683689677332861400,9.862861328125,1.197045738890022,-0.3782125506341457,-1.102276474262774
1683689677342833400,9.87283349609375,1.0686904310032725,-0.08868483014702797,-1.935025813537836
1683689677352804400,9.882804443359374,0.6193956346690654,0.07032733567953109,-2.5789649378329513
1683689677362775600,9.892775634765625,-0.04859729603901505,0.07303250298500061,-2.9927707798957823
1683689677372746500,9.90274658203125,-0.49861134655848144,-0.16192366935908795,-3.200933930121362
1683689677382718500,9.912718505859376,-0.5767255367219448,-0.571303511673212,-3.0801287453532216
1683689677392689400,9.922689453125,-0.5809153896272182,-0.9077706779897212,-2.5299960320025683
1683689677402660600,9.93266064453125,-0.8195091878212988,-1.0757090775936842,-1.6813935822963713
1683689677412631600,9.942631591796875,-1.24097022081241,-0.9859399593412875,-0.6315457989290356
1683689677422603500,9.952603515625,-1.411407451494783,-0.7237906596451997,0.7216866731032728
1683689677432574500,9.962574462890625,-0.9825802005846053,-0.4696206682652235,2.4776594033047554
1683689677442545400,9.97254541015625,-0.04321355717405677,-0.42561259971261023,4.373902481722832
1683689677452516600,9.9825166015625,1.1123076005421577,-0.5856757358968258,6.176121999314427
1683689677462488300,9.99248828125,2.109320742561668,-1.0800450609713792,7.4155726093441245
1683689677472459500,10.00245947265625,2.5002596499085423,-2.247411847043037,7.313401105636358
1683689677482430500,10.012430419921875,2.2099496930025517,-3.6774540025115012,5.985090308892727
1683689677492401700,10.022401611328124,1.3896562229357659,-4.181144113638997,4.953276487126947
1683689677502373400,10.032373291015626,0.5108241277258843,-3.8211657233536243,4.286310707509517
1683689677512344600,10.042344482421875,-0.5095569938668981,-2.9384646046906706,3.44897374818325
1683689677522315500,10.0523154296875,-1.31678753221035,-1.4031097248792648,2.534215403263271
1683689677532286500,10.062286376953125,-1.751236933851242,0.6422516095995903,1.694969979967177
1683689677542258400,10.072258544921874,-2.0360499007761477,2.7080869923084974,0.987349241617322
1683689677552229400,10.0822294921875,-2.2157623248040674,4.420691705426574,0.22849574415832757
1683689677562200600,10.09220068359375,-2.0677052682340142,5.915647939354181,-0.6779340406164527
1683689677572171500,10.102171630859376,-1.1836474742650984,6.887119812881946,-1.8212296307489275
1683689677582143500,10.1121435546875,0.11607322434280067,6.876441182479262,-3.0093539581671354
1683689677592114400,10.122114501953124,0.43122284080982204,5.296191514408588,-3.721696464341879
1683689677602085600,10.132085693359375,0.13023728570844978,2.464178282701969,-3.099673403778672
1683689677612056600,10.142056640625,0.2774619831075892,0.30705928552448747,-1.4751282285161316
1683689677622028500,10.152028564453126,-0.03183072402477264,-1.239173546653986,-0.10721271274536848
1683689677631999500,10.16199951171875,-0.47794484449625013,-2.723289822137356,1.0367349115550517
1683689677641970400,10.171970458984376,0.32692429847810417,-4.15640714726746,2.1555022096306082
1683689677651941600,10.181941650390625,1.6885551444888114,-5.1626908064574,3.253342455011606
1683689677661913300,10.191913330078124,2.5691233427762983,-5.3353895523309705,3.8316128830879923
1683689677671884500,10.201884521484375,2.527560329288244,-4.225321109017729,3.3806603826746344
1683689677681855500,10.21185546875,1.7414871087312698,-1.6005588811278342,1.7614695740520954
1683689677691826700,10.22182666015625,0.634995354861021,2.0038117649942637,-0.0826598707690835
1683689677701798400,10.23179833984375,-0.5833341412067413,5.125698754146695,-1.4369021043658257
1683689677711769600,10.24176953125,-1.3743559240818022,6.930384954112768,-2.4301357278466225
1683689677721740500,10.251740478515625,-0.7555974182724953,7.403455470570922,-3.5040623059377074
1683689677731711500,10.26171142578125,0.6688812578499317,6.274228737801313,-4.580047570124268
1683689677741683500,10.271683349609376,1.1983657354474067,2.771960621803999,-4.21925903249979
1683689677751654700,10.281654541015625,1.277609368032217,-0.3917056539356708,-2.135337373480201
1683689677761625600,10.29162548828125,1.1874678362708537,-2.114530732294917,-0.5072798061825334
1683689677771596500,10.301596435546875,1.125674593245983,-3.1912130388349293,0.616147738789022
1683689677781568500,10.311568603515624,1.0899813485741614,-3.68864584313333,1.4730372475862503
1683689677791539500,10.32153955078125,0.9162509215652942,-3.4876766960650682,1.93631921434924
1683689677801510700,10.3315107421875,0.688151775509119,-2.3836931256234646,2.039615776564181
1683689677811481600,10.341481689453126,0.2468914882769808,-1.0007032287091016,1.4625963714621961
1683689677821453600,10.35145361328125,-0.2086112227866426,0.08372516191303729,0.30244696942344307
1683689677831424500,10.361424560546874,-0.42932906295247375,0.9109808722078799,-0.8265770803809166
1683689677841395700,10.371395751953125,-0.3904980317115783,1.3187427579313515,-1.7384265521168707
1683689677851367400,10.381367431640625,-0.035242030305601656,1.192300151798129,-2.259273988141864
1683689677861338600,10.391338623046876,0.5674748567631468,0.5930044713497161,-2.25250259431079
1683689677871309600,10.4013095703125,1.0718728604316712,-0.20832126339673995,-1.7752715971723199
1683689677881280500,10.411280517578126,1.343379624929279,-0.7883195381790399,-1.0614264313496649
1683689677891252500,10.42125244140625,1.3870949941456316,-1.0123387214452029,-0.3269581642150879
1683689677901223400,10.431223388671874,1.1548948425114154,-0.8902876282691955,0.26254706684201956
1683689677911194600,10.441194580078125,0.6466682569980621,-0.6041565644830464,0.5749329542167484
1683689677921165600,10.45116552734375,-0.01218731793258339,-0.2678893046528101,0.6729815327756107
1683689677931136500,10.461136474609376,-0.6773113056082278,-0.11392214725613593,0.5958114915944636
1683689677941108500,10.4711083984375,-1.0075076480269431,-0.11884615965485572,0.3309239991061389
1683689677951079700,10.48107958984375,-1.1334708731453864,-0.17553367703855036,-0.08018865834996104
1683689677961050600,10.491050537109375,-1.1015946294784544,-0.16416764889359473,-0.5116887086659669
1683689677971022600,10.501022705078125,-0.9686286859910934,0.011677578312158585,-0.9377795934148132
1683689677980993500,10.51099365234375,-0.937033012831211,0.23736031087636947,-1.2697490099206565
1683689677990964500,10.520964599609375,-1.0149239886980503,0.28663083000183104,-1.4109906873874365
1683689678000935700,10.530935791015626,-1.0683482665020971,0.19233985041081905,-1.2548508621267973
1683689678010907400,10.540907470703125,-0.9332581704676151,0.07496551687419414,-0.9296107538759708
1683689678020878600,10.550878662109374,-0.9152140527982264,-0.08920973080396652,-0.7342031864576041
1683689678030849500,10.560849609375,-1.1146200422029942,-0.29328678075969217,-0.8858369324706494
1683689678040820500,10.570820556640625,-1.454018074339628,-0.3642056525915861,-1.2026732233829796
1683689678050792400,10.58079248046875,-1.8428829518914223,-0.21362346145808694,-1.4578119136646388
1683689678060763600,10.590763671875,-2.0145897641181945,-0.10505728827714919,-1.6058493887513876
1683689678070734600,10.600734619140624,-1.970197664684057,-0.1067781207203865,-1.6003852781265973
1683689678080705300,10.610705322265625,-1.8465572564899921,-0.17905892855525016,-1.4248343576923013
1683689678090677500,10.620677490234375,-1.539366453540325,-0.24102058694958686,-1.069323760470748
1683689678100648400,10.6306484375,-1.1449193188767879,-0.31550562683045863,-0.654871583328396
1683689678110619600,10.64061962890625,-0.9627917234659195,-0.398206706392765,-0.3528299798354506
1683689678120589300,10.65058935546875,-0.9251637113392353,-0.48409050764441486,-0.044459027190506456
1683689678130561300,10.660561279296875,-0.9013723552547395,-0.6158668760210275,0.2445097442395985
1683689678140532200,10.6705322265625,-0.8464790278114378,-0.7477268310278654,0.5250888729870319
1683689678150503400,10.68050341796875,-0.8621301859296858,-0.7665338228285312,0.7621938939280808
1683689678160474400,10.690474365234374,-1.009264720827341,-0.635211627960205,0.8868959400042891
1683689678170446300,10.7004462890625,-1.2908254079580306,-0.35332653118073937,0.7583942093841731
1683689678180417300,10.710417236328125,-1.3035282376646995,-0.02998305033147335,0.5025190215215086
1683689678190388200,10.72038818359375,-1.0216332770783454,0.2713537658929825,0.364147054272145
1683689678200359400,10.730359375,-0.5387561638116837,0.5207815311819315,0.5255617511957884
1683689678210331100,10.7403310546875,0.3382041461769491,0.6761088710159063,0.8453989774897694
1683689678220302300,10.75030224609375,1.1539105076491831,0.7076946803689003,1.1393699411213398
1683689678230273300,10.760273193359374,1.6218633888326583,0.63486676004529,1.2718090111903846
1683689678240244500,10.770244384765626,2.028213946453482,0.6885504194378852,1.1409063569083808
1683689678250216200,10.78021630859375,2.3330736761070785,1.0194996991157532,0.8377771043092012
1683689678260187400,10.7901875,2.3416813454546035,1.5730232239484787,0.36068098559677597
1683689678270158300,10.800158447265625,2.175501772216707,2.1540338906437158,-0.13696604597419498
1683689678280129300,10.81012939453125,2.2208638857267795,2.499185883197188,-0.5880488947689533
1683689678290101200,10.820101318359375,2.4380408018827437,2.3868746782690287,-0.8171531262144446
1683689678300072200,10.830072265625,3.0731483849465846,1.817269202685356,-0.44926849284917114
1683689678310043400,10.84004345703125,3.582572071290016,1.2986246835321187,0.38157793541401624
1683689678320014300,10.850014404296875,2.9773320954844356,0.9699141226917505,1.411175250174105
1683689678329986300,10.859986328125,1.0775918226003647,0.4965636202484369,2.1790292156904933
1683689678339957200,10.869957275390625,-0.9796423205018043,-0.06704816787838935,2.1904002122715114
1683689678349928400,10.879928466796875,-1.1898479363404213,-0.5402361732363701,1.562550637511909
1683689678359899400,10.8898994140625,0.5281039830245078,-0.9451023375183343,0.7032146123453974
1683689678369871400,10.899871337890625,1.9733727875888347,-1.2697867115825414,0.09220774357616901
1683689678379842300,10.90984228515625,2.434812925877422,-1.4693898309946059,0.0000263034850358963
1683689678389813200,10.919813232421875,2.2655494151495397,-1.3574404451161621,0.358357218824327
1683689678399784400,10.929784423828124,1.6421278859652577,-1.2105167764902114,0.5458695029482246
1683689678409756200,10.939756103515625,1.00553664021492,-1.1562000798910856,0.4919628484547138
1683689678419727400,10.949727294921875,0.455893171685934,-1.1976987959712744,0.3328410847738385
1683689678429698300,10.9596982421875,0.011612111860513686,-1.2741770554959773,0.18816519507467747
1683689678439669200,10.969669189453125,-0.35929742228388784,-1.4319956276237964,0.002895136919617653
1683689678449641200,10.97964111328125,-0.550315814832598,-1.5543763911455868,-0.04503770386129617
1683689678459612400,10.9896123046875,-0.3441337554216385,-1.5723486856877802,0.11326865178346633
1683689678469583400,10.999583251953124,-0.167276136302948,-1.5405027640938758,0.578450168557465
1683689678479555300,11.009555419921876,-0.30588498104810713,-1.4481336924761532,1.2169953248545526
1683689678489526300,11.0195263671875,-0.4730911208547651,-1.2036667644649743,1.7872192245975136
1683689678499497500,11.02949755859375,-0.7290826285734773,-0.9253221167713404,2.074867122687399
1683689678509468400,11.039468505859375,-0.7879962975740432,-0.7310726333469152,1.9205802318170666
1683689678519440400,11.0494404296875,-0.5890577795505524,-0.5866378589272498,1.5336872388601301
1683689678529411300,11.059411376953125,-0.4570912954293191,-0.6111258189737796,1.0963014915063976
1683689678539382300,11.06938232421875,-0.47276115824803705,-0.8043126416027545,0.9082780429899692
1683689678549353500,11.079353515625,-0.9127147102631628,-1.2873942644655705,0.9196127992138265
1683689678559325200,11.0893251953125,-1.715866199132055,-1.956120624014735,1.1998898762747645
1683689678569296400,11.09929638671875,-2.3854759173870086,-2.81683027562201,1.6109820754647255
1683689678579267300,11.109267333984375,-2.823779656368494,-3.638053720015287,2.1386054353654385
1683689678589238500,11.119238525390625,-3.462006540496647,-4.309457189819216,2.685541690762341
1683689678599210200,11.129210205078126,-4.783350713098049,-4.797116788122057,3.1963030554503202
1683689678609181400,11.139181396484375,-5.744792190998792,-4.857470426797867,3.713188163715601
1683689678619152400,11.14915234375,-5.131235345485806,-4.67210099992156,3.7319834650784727
1683689678629123300,11.159123291015625,-2.503777887162566,-4.194352554780244,3.3120445270881054
1683689678639095300,11.16909521484375,2.149089419978857,-3.2554040637165307,2.5743483839482066
1683689678649066200,11.179066162109375,6.939524538379907,-1.9583879844248293,1.465935891148448
1683689678659037400,11.189037353515625,8.60095903623104,-0.8377940554440021,0.9083265583068132
1683689678669008100,11.199008056640626,6.625953094482422,-0.47970776251554487,1.9286936879068612
1683689678678980400,11.20898046875,3.165923699277639,-1.441884568953514,4.172434737482667
1683689678688951300,11.218951416015624,-0.3083493253350258,-3.313367592385411,6.040121875762939
1683689678698922500,11.228922607421875,-2.430697161121666,-5.034484113261104,5.368007627341151
1683689678708893200,11.23889306640625,-0.3394859296157956,-5.775970004072785,2.4712106655567885
1683689678718865400,11.248865478515626,1.5686182669878006,-4.788717793089151,-0.6248351953744888
1683689678728836400,11.25883642578125,0.040025428657233714,-3.1506355292528867,-3.912174612534046
1683689678738807300,11.268807373046876,-1.9457631883904336,-1.6346838535696266,-7.246689037844538
1683689678748778200,11.2787783203125,-1.7124585826456546,-0.4169716126173734,-10.131487518799304
1683689678758750200,11.288750244140624,0.015389292311668395,-0.6857265941888093,-12.840211055445671
1683689678768721400,11.298721435546875,1.6083166556477546,-1.7838275363326073,-15.030931293451784
1683689678778692400,11.3086923828125,2.698152750532329,-2.396301262784004,-15.113498517501354
1683689678788663300,11.318663330078126,2.597578452888131,-0.2770043390005827,-8.94727422734499
1683689678798635300,11.32863525390625,1.8999296579763292,2.145814343830943,-1.3964303932458162
1683689678808606500,11.3386064453125,1.7638614376246928,2.8817408469498154,3.2528269067049025
1683689678818578200,11.348578125,2.489130060867965,3.4064182165265082,6.781574448826909
1683689678828549400,11.35854931640625,2.621991886393726,3.642181029078364,8.664584243923425
1683689678838520300,11.368520263671876,1.1106477045059204,3.0618191816806792,8.237733626848458
1683689678848491300,11.3784912109375,-0.3219944043278694,1.4392378538370132,4.922780811098217
1683689678858463200,11.388463134765624,-0.2325768759921193,0.45813247504532334,1.169105154171586
1683689678868434200,11.39843408203125,0.6238073136314749,0.1201975742638111,-1.2753496064066887
1683689678878405400,11.4084052734375,1.139086155743897,0.2985182516723871,-2.7326071010589597
1683689678888376300,11.418376220703125,1.9054384845256804,0.7453449043273925,-3.549725448220968
1683689678898348300,11.428348388671875,2.110047449401021,1.265554188579321,-4.189894990849495
1683689678908319200,11.4383193359375,1.5510481235057114,1.7456863139867782,-4.758669860827923
1683689678918290400,11.44829052734375,1.0623618125036358,2.165017056950927,-4.721936751714349
1683689678928261400,11.458261474609374,-0.06948708546310663,2.6839631893992424,-4.608384022292494
1683689678938233300,11.4682333984375,0.11482611035853624,2.8541005603522063,-4.590013668343425
1683689678948204300,11.478204345703125,0.29227292754203077,2.814523752245307,-4.10079398111701
1683689678958175200,11.48817529296875,0.5168035674616694,2.915524458608031,-2.8911393744140863
1683689678968146400,11.498146484375,1.20432785872221,3.1083091301769015,-1.4243933359265326
1683689678978118100,11.5081181640625,1.5830883986279367,3.374356606355309,-0.2570142748951912
1683689678988089300,11.51808935546875,2.5779189359113572,3.711609954613447,0.49883857944309706
1683689678998060300,11.528060302734374,2.939876517315209,4.089889725264906,0.3207178085207939
1683689679008031500,11.538031494140625,3.327732217824459,4.577538802173733,-1.0269698888659478
1683689679018003200,11.548003173828125,3.1996424290060994,4.943979666471481,-3.1409003171801566
1683689679027974400,11.557974365234376,2.760268430444598,4.964322197276354,-5.453120444220304
1683689679037945300,11.5679453125,2.2058123009368775,4.544111748868227,-7.649056955569982
1683689679047916300,11.577916259765624,2.723458164441585,3.935260889089107,-9.544847906306385
1683689679057888300,11.58788818359375,3.7331045780628918,3.300193053513765,-11.091592779660225
1683689679067859500,11.597859375,4.972843357384204,3.078915862432122,-11.964585574257374
1683689679077830400,11.607830322265626,5.97724953226447,3.4232068542420864,-11.673566153907775
1683689679087801300,11.61780126953125,6.412303329539299,4.462032016074657,-10.18244613714218
1683689679097773300,11.627773193359374,6.150075119388103,5.7843596467554566,-8.439628072068095
1683689679107744300,11.637744140625,5.780792894184589,7.175705868604779,-7.227561728048324
1683689679117715500,11.647715576171874,4.592915819525718,8.66330823263824,-6.379930169200897
1683689679127686100,11.65768603515625,3.138870857179165,10.074043045568466,-5.659148628243804
1683689679137658400,11.667658447265625,1.7847921435810625,11.249790121972561,-4.949591076612473
1683689679147629300,11.67762939453125,-0.04326879449263215,11.857794594055413,-4.253670712928474
1683689679157600300,11.687600341796875,-2.3493944040499626,11.388203736406565,-3.544291148212552
1683689679167571200,11.6975712890625,-3.6191444368839263,10.500458778357505,-2.9187907669275996
1683689679177543200,11.707543212890625,-3.397430607950687,10.17295583974123,-2.578726745162904
1683689679187514400,11.717514404296875,-2.9195021300673485,10.042958171474933,-2.575310506978631
1683689679197485300,11.7274853515625,-3.6268320687770843,9.203591752147673,-2.789035967506468
1683689679207456300,11.737456298828125,-4.45863360580802,5.576921595934033,-3.2259915067493914
1683689679217428200,11.74742822265625,-2.6205519167184828,0.6462099918365478,-4.422760912916064
1683689679227399400,11.7573994140625,0.38790626165270803,-3.7919343681722877,-5.441334144836664
1683689679237370400,11.767370361328124,0.9301917686343193,-7.656051344501972,-4.44727400740385
1683689679247341000,11.777341064453125,1.6584382386445997,-10.209869566118716,-1.0068770950384438
1683689679257313300,11.787313232421875,4.5928222960233684,-11.681841814821958,3.7459994232103226
1683689679267284200,11.7972841796875,5.059982711654901,-10.599007999914884,8.235702997803688
1683689679277255400,11.80725537109375,3.633439504218101,-6.984102515774965,10.330163001972437
1683689679287226000,11.81722607421875,0.3295066431215033,-4.4318841305702925,10.106494531840085
1683689679297198300,11.8271982421875,-3.237421247780323,-5.859899164125323,7.049609299430251
1683689679307169300,11.837169189453125,-3.7104514322280884,-9.082619101858139,4.134430293259024
1683689679317140200,11.84714013671875,-2.8177859689116476,-10.577744262611866,4.148743188510835
1683689679327111200,11.857111083984375,-2.0005016175329686,-10.75175642917156,5.589424519154429
1683689679337083400,11.86708349609375,-1.6932465171754358,-10.728881749540566,6.685224783140421
1683689679347054300,11.877054443359375,-2.8063573969244957,-11.156311043286323,6.509194847017526
1683689679357025000,11.88702490234375,-3.7686499386966226,-11.825338431608676,5.666683115401864
1683689679366996200,11.896996337890625,-3.63075654874444,-12.678717009675502,4.390592042978108
1683689679376968200,11.90696826171875,-3.0350001483380793,-12.777829710334538,2.3410842563442884
1683689679386939400,11.916939453125,-1.9409072727918624,-11.354898848176003,-0.07710632829517125
1683689679396910000,11.92691015625,-0.661110550783202,-9.410924004507065,-1.7685884661465883
1683689679406881300,11.93688134765625,-0.04963058460950851,-8.260752098864316,-2.739365343147516
1683689679416853200,11.946853271484375,-0.38079372623376545,-8.073713277471064,-2.7706375565066934
1683689679426824400,11.956824462890625,-1.0642625315584242,-8.489403618106245,-1.4587845580890775
1683689679436795100,11.966795166015626,-1.1962497662067413,-9.285214973345399,0.37620296437740325
1683689679446766000,11.97676611328125,-0.8374444382887333,-10.078944846135377,1.6487858825497328
1683689679456738300,11.98673828125,-0.46983759895153343,-10.4542909014225,2.5914865657538173
1683689679466709200,11.996709228515625,-0.21516141161508856,-10.295644646298884,3.3103573046535253
1683689679476680200,12.00668017578125,-0.29000585939288137,-9.838590614140033,3.6721547270596027
1683689679486651100,12.016651123046875,-0.5312137125428765,-9.417940605270863,3.602745675268769
1683689679496623400,12.026623291015625,-0.7280990974288434,-9.243681770473717,3.153879625740647
1683689679506594300,12.03659423828125,-0.8564707719285041,-9.328562532162666,2.4293640128217637
1683689679516565200,12.046565185546875,-0.8158290380038321,-9.576143208280206,1.647148052214831
1683689679526536200,12.0565361328125,-0.8323449962578714,-9.9285087854743,0.9435882796935736
1683689679536508400,12.06650830078125,-0.9865724120259285,-10.282200642836093,0.5079442614406346
1683689679546479000,12.07647900390625,-1.0142354949772356,-10.877504623299837,0.15835604000538586
1683689679556450300,12.0864501953125,-0.5179403164066374,-11.352986292552947,0.2975399081595242
1683689679566421200,12.096421142578125,-0.07881693160533905,-11.376662936216592,1.070269224627316
1683689679576393500,12.1063935546875,-0.28028993654251094,-10.784587854671477,2.2600766828268766
1683689679586364200,12.1163642578125,-0.9341069693166762,-9.864357508081197,3.3915924033164977
1683689679596335000,12.126335205078124,-1.6803566404640673,-8.84995600888729,4.198778262268006
1683689679606306300,12.136306396484375,-2.148374111316353,-7.672740613496303,4.349871617794037
1683689679616278300,12.1462783203125,-2.540495798707008,-6.283359554240107,3.415900622881949
1683689679626249200,12.156249267578126,-2.849682159388065,-4.688323820447922,1.714345419305563
1683689679636220200,12.16622021484375,-2.4168049754999577,-3.2513276080578564,0.08614420575350522
1683689679646191400,12.17619140625,-1.5235479760311543,-2.411393033453822,-1.184478664392233
1683689679656163300,12.186163330078125,-1.3499673327565191,-2.7503251285791395,-2.3673329424530265
1683689679666134300,12.19613427734375,-1.7595637404307722,-4.435297738406062,-2.983603430838883
1683689679676105200,12.206105224609376,-0.20644611717462538,-7.008578200861812,-2.3484496705457567
1683689679686076200,12.216076171875,4.8587280256435275,-8.964633358424901,-0.6527206889048218
1683689679696048400,12.22604833984375,10.737615675616263,-6.782670427370071,1.8529355593502521
1683689679706019000,12.23601904296875,5.797659857833385,-2.874918307453394,5.7737406375855205
1683689679715990300,12.245990234375,-10.924798289394378,0.3978033862888813,8.209932596731186
1683689679725961200,12.255961181640625,-14.374749358177183,5.321337061581016,6.7092521399378775
1683689679735933200,12.26593310546875,10.576154363071918,17.736760277700423,4.359127814178168
1683689679745904000,12.275904052734376,31.36117057652473,41.89256225328445,0.828368639972806
1683689679755875300,12.285875244140625,-29.70780832597017,42.19626579864025,-4.6490094626694916
1683689679765846300,12.29584619140625,-2.2453591522969303,48.03932897877693,-12.852657864564657
1683689679775818200,12.305818359375,17.174872244626282,27.14162162116766,-19.68664346863031
1683689679785789200,12.3157890625,-3.8673040819332,10.792482407313585,-13.996486538660525
1683689679795760000,12.325760009765625,-1.505998144684732,4.640404715931416,-6.292991890460252
1683689679805731300,12.3357314453125,5.038665198338031,-2.2572569492310284,-3.9824546019405123
1683689679815702300,12.345702392578126,5.490208358120918,-6.96719697368145,-3.5745682130545378
1683689679825674200,12.35567431640625,-1.4230030506119131,-9.00331526351869,-3.563599075272679
1683689679835645200,12.365645263671874,-1.083557453006506,-9.999024337202309,-5.03068589002192
1683689679845616400,12.375616455078125,4.211197306597232,-7.679556723251938,-7.593083723935484
1683689679855587300,12.38558740234375,5.438752896171808,0.8162544238090514,-9.770607211238145
1683689679865559300,12.395559326171876,2.3290610794648527,10.182004238593578,-9.553116552957892
1683689679875530200,12.4055302734375,1.8186181330762803,16.267874304574725,-7.935327135565877
1683689679885501200,12.415501220703124,3.086834380471706,16.495499987900256,-7.509355054891109
1683689679895472400,12.425472412109375,2.197381449460983,11.416406917583942,-6.688640144541859
1683689679905444000,12.435444091796874,0.7606698992311954,5.660289614972472,-4.656784188324213
