time,seconds_elapsed,z,y,x
1683691942594702300,0.036702392578125,0.029698388171195984,-1.4666852482110262,-1.000005747964233
1683691942604673300,0.04667333984375,-0.3823129716902971,-2.2057713844045996,-1.012253600445017
1683691942614645200,0.056645263671875,-0.31835750913023947,-2.6687030764251944,-0.8884932921983301
1683691942624616400,0.066616455078125,-0.056851768034696576,-2.34711929872483,-0.8402003128681331
1683691942634588200,0.076588134765625,0.17008476398289202,-1.7478744716808199,-1.1227617745392025
1683691942644559400,0.086559326171875,0.4537777869671583,-1.3692691223368048,-1.4855100679293274
1683691942654526500,0.0965263671875,1.0042150362223385,-1.0857558398336171,-1.5913047305703163
1683691942664498700,0.106498779296875,1.6325801592886446,-0.7570709979563951,-1.383738961715996
1683691942674469400,0.116469482421875,2.011048730510473,-0.4400508749097585,-0.8586213010258972
1683691942684441600,0.126441650390625,2.035707370948791,-0.12970569958239794,-0.3123722972407937
1683691942694412500,0.13641259765625,2.447512979105115,0.08800327762365341,0.028135449703410267
1683691942704384500,0.146384521484375,3.25574133284688,0.49503100385367865,0.4358061500120908
1683691942714355500,0.15635546875,4.132752130913734,1.0222539662599563,-0.030402079461142418
1683691942724326700,0.16632666015625,5.182229035142064,1.349772102445364,0.26595344121940434
1683691942734298400,0.17629833984375,5.756520622715354,1.5441975269585846,0.6418611489772796
1683691942744269600,0.18626953125,5.693057912108301,2.1057585200354456,1.043156615165621
1683691942754241500,0.196241455078125,5.441632835522293,2.3166356053948403,1.6868018710806965
1683691942764212700,0.206212646484375,5.171476170459389,1.9661317304193973,1.2971575335890053
1683691942774183400,0.216183349609375,4.823839959874749,1.6579235671207309,0.20700506623163817
1683691942784155600,0.22615576171875,4.583949838259816,1.7025468449622392,-0.9202613262504339
1683691942794126600,0.236126708984375,4.196975304499269,2.0618454362899064,-1.9977320066891608
1683691942804098600,0.2460986328125,4.253969695875049,2.9821304356768725,-1.8886252968907355
1683691942814069500,0.256069580078125,4.226357466328144,3.843718039162457,-1.0140316429682075
1683691942824040700,0.266040771484375,4.230994478479028,4.018987512306869,0.09304244083464146
1683691942834012400,0.276012451171875,4.2499791649341585,3.423518988931179,1.050142090138793
1683691942843983600,0.285983642578125,4.074882710269093,2.9742145479857918,1.1087059227883815
1683691942853955600,0.29595556640625,3.967039590665698,3.463046989460289,0.47176527907848353
1683691942863926500,0.305926513671875,3.1202772158682346,5.095677125370502,-0.7871087010845541
1683691942873898500,0.3158984375,1.930947019791603,7.474093771895766,-1.257711658385396
1683691942883869700,0.32586962890625,0.875189427858591,8.060900557649136,-2.0317653553247452
1683691942893840600,0.335840576171875,-1.6716449262201785,6.941130804532766,-3.008082915318012
1683691942903812600,0.3458125,-2.8662299740850923,6.5361746238797895,-3.0283021120041607
1683691942913783600,0.355783447265625,-4.015570689600706,6.208422094416618,-3.964440806344151
1683691942923755500,0.365755615234375,-4.825220600578189,5.402271715992689,-4.856598904660344
1683691942933726500,0.3757265625,-5.194606870678067,4.323333154958486,-5.2033098170936105
1683691942943697400,0.385697509765625,-5.442076487636566,3.1406019187554715,-6.104857675045729
1683691942953669600,0.395669677734375,-5.569459589490294,1.0912984225220979,-6.2361518128633495
1683691942963640600,0.405640625,-6.208800280079245,-0.36337438939921557,-4.964474757489562
1683691942973612500,0.415612548828125,-5.982393324893713,-1.6921851715542375,-4.188403875508905
1683691942983583700,0.425583740234375,-5.509730220192671,-2.422519992145896,-4.426451584127545
1683691942993554700,0.4355546875,-5.13499557480216,-2.9035055195122954,-3.8771336942911145
1683691943003526700,0.445526611328125,-5.372167085108161,-3.3539287353545424,-3.692216102835536
1683691943013497600,0.45549755859375,-5.462623601102829,-3.562482638463378,-3.8625750075846907
1683691943023469600,0.465469482421875,-5.490971159186959,-3.9698654617413878,-3.6709517810106274
1683691943033440500,0.4754404296875,-5.243230324071646,-4.816181554076075,-4.371666100972891
1683691943043411500,0.485411376953125,-5.341249968796968,-7.617491604483127,-6.409311746507883
1683691943053383700,0.4953837890625,-4.785483048951625,-13.690596881437301,-11.708560310399532
1683691943063354400,0.505354248046875,-2.5574071860194203,-14.911031825351714,-11.963008534198998
1683691943073326600,0.51532666015625,-2.029400964280963,-11.863643320083618,-9.036172407981752
1683691943083297500,0.525297607421875,-2.8098025689423083,-8.79715848467946,-5.407711276698112
1683691943093269500,0.53526953125,-2.4859306803047656,-3.614278876674175,-1.8711837482243776
1683691943103240400,0.545240478515625,-2.7446482519865034,-0.3058212681621313,0.937909795665741
1683691943113211600,0.555211669921875,-3.3420728778660296,1.2115895202882587,4.328113959494233
1683691943123183600,0.56518359375,-3.8490181913971897,2.4967048800364133,6.653667615360021
1683691943133154600,0.575154541015625,-3.165473032900691,3.7306414028197525,8.824764869007467
1683691943143126500,0.58512646484375,-2.5676924331903455,5.128434901112318,5.118161928901076
1683691943153097700,0.59509765625,-2.1412702706605193,7.707740030685066,8.005534644258022
1683691943163068400,0.605068359375,1.2609843964457512,6.197994223904609,10.413774182116985
1683691943173040600,0.61504052734375,1.5584721360266207,4.7569437676876785,6.467521358892321
1683691943183011600,0.625011474609375,4.447750977265835,1.6604846497803925,1.7340847235202788
1683691943192983600,0.634983642578125,4.614724331229925,-0.6957786171257495,-2.6237527585864067
1683691943202954500,0.64495458984375,3.9919671111732717,-4.700668045975267,-4.785886369055509
1683691943212925700,0.65492578125,5.572476891484857,-4.9470788015305995,-4.046695895704627
1683691943222897400,0.6648974609375,4.850847793787717,-2.492692137263715,-2.96748553199172
1683691943232868600,0.67486865234375,2.27191266657114,-1.3887588357046246,-0.08806699050962924
1683691943242840600,0.684840576171875,0.7947299897432327,-2.254704342138767,1.9738900894612073
1683691943252811800,0.694811767578125,1.3389677998363971,-0.9428919679924845,0.3515045764505863
1683691943262783500,0.704783447265625,-0.31070670211613177,-0.8238941249072551,0.08593757726550101
1683691943272754700,0.714754638671875,-1.3527753759145735,-0.2538163556367159,0.8165344097942113
1683691943282725600,0.7247255859375,-1.674666904389858,-0.10695479246154427,1.5165841283679007
1683691943292697600,0.734697509765625,-2.7868407955497503,1.0630138466715813,2.0468319915533066
1683691943302668500,0.74466845703125,-3.9242257003337144,3.4537647818520663,4.326922703883052
1683691943312640800,0.754640869140625,-4.640504084652662,1.544349794910848,2.8086253418564793
1683691943322611500,0.764611572265625,-3.185461343440413,3.6009558692425485,1.3023796521514655
1683691943332582400,0.77458251953125,-2.9621774887114762,1.3910010616734623,1.8981798916995525
1683691943342554600,0.7845546875,-3.471796989887953,1.1287225826397538,0.6366764398157596
1683691943352525600,0.794525634765625,-2.287431722742319,0.5818541317820549,-0.027265608066320418
1683691943362497500,0.80449755859375,-1.436718564492464,-0.12491583495736121,0.08332944059371948
1683691943372468500,0.814468505859375,-0.5020639712303877,-0.06917670433968305,-0.3527449319005012
1683691943382439700,0.824439697265625,0.07816694326400757,-0.10128273817449808,-0.9573533318042755
1683691943392411400,0.834411376953125,0.5278068997740746,0.24720658210813998,-1.6598375840485096
1683691943402382600,0.844382568359375,0.4132850330591202,0.8263724977195263,-2.011106013655662
1683691943412354600,0.8543544921875,0.200907772269845,1.0540360288374124,-1.8178554781407117
1683691943422325500,0.864325439453125,1.26680506542325,0.9620362289234995,-1.1095043796896933
1683691943432296400,0.87429638671875,0.916085501870513,1.0229586073979735,-2.18558229059577
1683691943442268700,0.8842685546875,1.209870295280218,0.8346282848894596,-2.2057155625641345
1683691943452239600,0.894239501953125,1.7571978880822658,0.28919425074905153,-2.3862498243689534
1683691943462211600,0.904211669921875,2.3670424350738526,0.08964812222123146,-2.923842789620161
1683691943472182500,0.9141826171875,2.7486972351163623,-0.4135997980967164,-2.888579753059149
1683691943482154500,0.924154541015625,3.3037656513035296,-0.7199339842170477,-2.781770652678609
1683691943492125400,0.93412548828125,3.067910484293103,-0.9987539943374693,-2.8735142858743665
1683691943502096600,0.9440966796875,3.06422390473485,-1.161529165959358,-2.095675809699297
1683691943512068600,0.954068603515625,2.846473134213686,-1.6962345930755138,-1.9986673878431318
1683691943522039600,0.96403955078125,2.0514649120509625,-1.7783175407394767,-2.2251468237429854
1683691943532011500,0.974011474609375,1.4805746573537588,-1.5895122941955924,-1.6287550480425357
1683691943541982700,0.983982666015625,1.1004010357797145,-1.7313250495485961,-1.269541212388873
1683691943551953700,0.99395361328125,0.47832303015887734,-1.487787219081074,-0.7330132460206746
1683691943561925600,1.003925537109375,0.10430851573646067,-1.452598855191469,-0.4365571875751018
1683691943571896600,1.013896484375,0.12207915022671222,-1.3542615228191017,-0.07276771456897259
1683691943581868500,1.02386865234375,0.17161328872442244,-1.3862731563687323,0.2823240727186203
1683691943591839500,1.033839599609375,0.39653205117881296,-1.3098160857625305,0.7656213841587305
1683691943601810400,1.043810546875,0.40334757641255853,-1.1342682340681551,1.2634750442177056
1683691943611782700,1.05378271484375,0.47007075012028215,-1.2210805483415723,1.462328806567192
1683691943621753300,1.06375341796875,0.4155664219945669,-1.2850175984621046,1.5126812757104635
1683691943631725600,1.0737255859375,0.41879648995697494,-1.601334395544976,1.309265904533863
1683691943641696500,1.083696533203125,0.9122469466209411,-1.765044656059891,0.8997492840975523
1683691943651667200,1.093667236328125,1.03075174549222,-1.9809885232895612,0.05982639993131161
1683691943661639200,1.10363916015625,1.153073472303152,-2.5153347617045045,-0.3138251263976097
1683691943671610000,1.113610107421875,1.3570797951102256,-2.8648011103257534,-0.4550333399862051
1683691943681582300,1.123582275390625,1.4213304412245749,-3.0412177076786753,-0.4078045558214187
1683691943691553000,1.133552978515625,1.4434534257054328,-3.2882711450517177,-0.13565350207090376
1683691943701524200,1.143524169921875,1.2082844873934984,-2.9799317565888166,0.17176117276251315
1683691943711496200,1.15349609375,1.1084434724599121,-2.4126297356419264,0.24581892714202402
1683691943721467100,1.163467041015625,1.1840525479346513,-1.7866313417069613,-0.01817453911602497
1683691943731439000,1.173439208984375,0.7926938077405095,-1.315286918389052,0.1564654039531946
1683691943741410300,1.183410400390625,0.19422405672222376,-0.966034797040373,0.30318215183019637
1683691943751381200,1.19338134765625,-0.0431172571927309,-0.720785632610321,0.5771557448327541
1683691943761353200,1.203353271484375,-0.14660598097890615,-0.7150250232569872,1.2158692434340714
1683691943771324200,1.21332421875,-0.0662052873134613,-0.6156240071758627,1.6337217305392027
1683691943781296000,1.223296142578125,0.09635960255861281,-0.6642340165659785,1.8782891963154076
1683691943791267000,1.23326708984375,0.10292845955491066,-0.6883993205294012,1.8289748380482196
1683691943801238000,1.243238037109375,0.11036533155739307,-1.0319397862330077,1.7884078498601912
1683691943811210200,1.253210205078125,-0.05435293695628643,-1.4248837497919797,1.9636942741394041
1683691943821181200,1.26318115234375,-0.6273018777489662,-0.9807418061763048,2.6883272298276424
1683691943831153200,1.273153076171875,-1.0456462400242685,0.16809797407984733,2.946380784642696
1683691943841124000,1.2831240234375,-0.7510469153612852,0.9440022673219441,2.808428942501545
1683691943851095300,1.29309521484375,-1.0417039321392774,1.1406813159808515,2.775250310999155
1683691943861067000,1.30306689453125,-1.7065522812113165,1.4092030733183025,2.22898011829555
1683691943871038200,1.3130380859375,-1.8736013307601211,0.618266338378191,1.811263824790716
1683691943881010200,1.32301025390625,-1.5707973645925521,-0.8621502058044076,0.48191667073667044
1683691943890981000,1.332981201171875,1.0468097308456896,-3.117976245449483,-4.133291060096025
1683691943900952000,1.3429521484375,5.10998505218625,-3.319891441196203,-7.863557784384488
1683691943910924300,1.35292431640625,3.36363121420145,-1.5752762635722755,-8.746416723957656
1683691943920895000,1.36289501953125,3.3622803841143845,0.015856033040583133,-3.418459367454052
1683691943930867200,1.3728671875,2.300833348368108,0.2660124048650265,-1.1083142931222916
1683691943940838100,1.382838134765625,1.1149681980535386,0.403673155105114,-1.0450099879473447
1683691943950809300,1.392809326171875,0.13559914153516292,0.7793912585750222,-0.8607482300519943
1683691943960781000,1.402781005859375,0.37588980677500367,0.4478399213507771,-0.0026771102547645566
1683691943970752300,1.412752197265625,0.6356280998066067,0.22046879730820654,0.8548165019154548
1683691943980724200,1.42272412109375,0.6851888340502977,-0.13050181839615105,1.182598257473111
1683691943990695200,1.432695068359375,0.48699280495718117,-0.4615121806114912,0.898930953451991
1683691944000666000,1.442666015625,0.5706280966296792,-1.0384636350438,0.8289695284754037
1683691944010638300,1.452638427734375,0.1128822828143835,-1.0658592992305755,1.0466811360299586
1683691944020609000,1.462609130859375,-0.3347252910852432,-0.9520926347970962,1.3129460543513298
1683691944030581200,1.472581298828125,-0.9999228919863701,-1.3409662801772355,1.1432768854320048
1683691944040552200,1.48255224609375,-0.742481331589818,-2.1613994509756562,1.747872425854206
1683691944050523100,1.492523193359375,0.055010524082183834,-2.9908231529593468,1.9727309825539587
1683691944060495000,1.5024951171875,0.006903788039088248,-3.5607810952425,1.6855167997062206
1683691944070466000,1.512466064453125,-0.6777250740408897,-3.9498482173681255,1.321358493387699
1683691944080438000,1.52243798828125,-1.0567705683678388,-4.124993187350034,0.5532417852818966
1683691944090409000,1.532408935546875,0.596600450015068,-3.5382881084054705,0.16451602393984793
1683691944100380200,1.542380126953125,1.753295619946718,-2.095999634826183,-0.06462123299241065
1683691944110352100,1.55235205078125,2.295363684785366,-2.423875498408079,-0.27670038761794563
1683691944120323000,1.562322998046875,3.7143560384511947,-2.5809283468604085,0.45825580916404723
1683691944130295000,1.572294921875,2.293103923159838,-2.300221646210551,1.277840254178643
1683691944140266200,1.582266357421875,0.04068265045695007,-2.667920401614904,1.525859906235337
1683691944150237200,1.5922373046875,-1.6048175614856182,-3.627731647965312,1.9492811333835123
1683691944160209200,1.602209228515625,-1.8788076672315597,-3.2379683602690696,1.781356762304902
1683691944170180000,1.61218017578125,-2.190430607409775,-1.3801649026215075,0.7582166608601808
1683691944180152000,1.622152099609375,-3.032135991078615,-0.8642448399960995,-0.3953670990526676
1683691944190123000,1.632123046875,-1.7515617818914353,1.826570114994049,-0.53212359392941
1683691944200094200,1.64209423828125,-0.35736864617839453,5.055821500322223,-0.5610585965126752
1683691944210066200,1.652066162109375,-0.8947802635133266,4.860584759426117,4.021074547713995
1683691944220037000,1.662037109375,-0.3844086287952959,5.63127394836843,7.967656456762552
1683691944230009000,1.672009033203125,5.828452470982074,8.62820710864067,-3.520482110340893
1683691944239980300,1.681980224609375,1.9883258804403243,6.182280521944165,-7.508347923675179
1683691944249951200,1.691951171875,-2.1298247475385663,5.960749648362397,-6.201885970646143
1683691944259923200,1.701923095703125,-3.03563260102272,8.409998657479882,-3.7349887843742966
1683691944269894100,1.71189404296875,-1.3707228282764554,7.965140090027451,-1.088835101148486
1683691944279866000,1.7218662109375,-0.023165771532058715,8.193112394833564,0.5231576126635075
1683691944289837000,1.731837158203125,0.7806079408884048,5.39816603423953,1.4795844772726297
1683691944299808300,1.741808349609375,0.9710473645053803,4.6548406530410045,1.1287374879479408
1683691944309780200,1.7517802734375,1.4153544355548917,5.417029724663496,0.05381546907871961
1683691944319751200,1.761751220703125,0.39747130479030307,3.6268168712079523,-1.182208673633635
1683691944329723100,1.77172314453125,-0.5363419422768056,-0.5770774188995361,-2.3710858652457594
1683691944339694300,1.7816943359375,-0.22743995149508117,-3.2146319083452224,-2.5352842015385626
1683691944349665300,1.791665283203125,-0.5441502779401839,-7.1217808016717425,-2.830976289874315
1683691944359637200,1.80163720703125,-1.3478513635158538,-10.030893639671802,-4.840793432763219
1683691944369608200,1.811608154296875,-0.5200538014292717,-9.406092346566915,-4.516664354494214
1683691944379580200,1.821580078125,3.3901603246867653,-4.9195682787925,0.6276116743505
1683691944389551000,1.831551025390625,-0.6354921984672546,-1.7540519912719725,4.810934008811414
1683691944399522000,1.84152197265625,-10.873365039277076,-1.1275164217203855,7.13198772290945
1683691944409494300,1.851494384765625,3.048714200913906,-0.26728432449698447,1.4524071320116518
1683691944419465000,1.86146484375,4.714309325575829,2.0327572889715433,2.9420959469303485
1683691944429437200,1.871437255859375,1.51322415041551,2.23789583067894,2.2963776841334997
1683691944439408000,1.881408203125,0.40804757079705595,1.1173013171762227,0.47166123418211936
1683691944449379300,1.89137939453125,0.4293384883679449,1.182210719460249,2.9486703568845987
1683691944459351000,1.90135107421875,0.41011823959127064,0.64980538598001,3.9861528719365595
1683691944469322200,1.911322265625,-0.017121888257935643,-0.16890753689706325,4.620273782050609
1683691944479294000,1.9212939453125,-2.712440219081938,-5.069827813842893,4.0556259288743135
1683691944489265200,1.93126513671875,-5.086977101564407,-10.722575927394628,0.7177510872200131
1683691944499236000,1.941236083984375,0.9476737954415381,-8.108216435575486,4.9202030695647
1683691944509208300,1.951208251953125,3.8981028325617313,-10.025761537480355,3.764766375261545
1683691944519179000,1.961178955078125,1.9468742183722554,-11.11506250257492,3.7607033636063334
1683691944529151200,1.971151123046875,2.089123173185438,-9.361469360986352,2.9889982756197453
1683691944539122200,1.9811220703125,3.897422449082136,-4.153156036517024,0.7840256403774023
1683691944549093000,1.991093017578125,7.9172858674407,0.06770926213562488,-1.3312339907139539
1683691944559065000,2.001065185546875,7.270257544958591,0.17311317189335823,-3.3535862055271863
1683691944569036300,2.011036376953125,3.96841613971591,5.8847641407907005,-3.2945611851066348
1683691944579008000,2.021008056640625,-11.225455306661129,11.517851860582828,-3.474028402201831
1683691944588979200,2.030979248046875,-10.98961942887306,7.079211241489649,-2.943791937193274
1683691944598950100,2.0409501953125,0.5747181424222886,4.273558777964115,-3.3787183086961505
1683691944608922400,2.05092236328125,2.0143430958807467,2.9399679949909445,-2.8820073889315125
1683691944618893000,2.06089306640625,1.8832509103760122,-1.4195073174506425,0.6912231457784771
1683691944628864000,2.070864013671875,-1.869214640108496,5.460043521481752,0.1540032516233623
1683691944638836200,2.080836181640625,-1.3092296641767025,8.761036785462498,-3.6491070289492606
1683691944648807200,2.09080712890625,0.023081600379943848,7.987879745101928,-2.296480706116557
1683691944658779400,2.100779296875,-4.281282650214433,5.653617297601699,0.29418036859855057
1683691944668750300,2.110750244140625,-3.7809026865482327,3.173943339604139,3.348144014473259
1683691944678721300,2.12072119140625,-0.3560883971095085,2.544261288720369,2.9897178220659493
1683691944688693200,2.130693359375,-0.1059179967597127,3.611780045595765,2.750935953953862
1683691944698664200,2.140664306640625,3.58097018905133,4.669104156193137,2.430135289455205
1683691944708636200,2.15063623046875,7.266074706315994,4.256822747218608,0.9259740048088133
1683691944718607000,2.160607177734375,4.808466449654102,2.435093642514944,1.0907708915166556
1683691944728578300,2.170578369140625,2.4731460175335407,2.2275819419354197,3.247346137206256
1683691944738550300,2.18055029296875,-0.6536439412295818,0.27881226520538327,3.9044659378528594
1683691944748521200,2.190521240234375,-4.8422830867990845,-0.2794435488462448,2.9123063733443617
1683691944758493200,2.2004931640625,6.190393101251125,-1.0967442668378353,0.04629997888207436
1683691944768464400,2.21046435546875,1.134490644647181,-3.264875656417012,-1.6829326284319162
1683691944778435300,2.220435302734375,-1.2209883400134742,-4.445013661256432,-2.923288662868738
1683691944788407300,2.2304072265625,-1.4155157635964453,-4.8171588746756315,-3.2280800034612414
1683691944798378200,2.240378173828125,-0.8027860165573656,-4.4536265913009645,-2.2544012675389644
1683691944808350200,2.25035009765625,0.02477320672869682,-3.394170729371905,-0.6149560447864234
1683691944818321200,2.260321044921875,-0.2722315716408193,-2.8381413591980933,-0.675797905370593
1683691944828292400,2.270292236328125,-0.8756745810270309,-2.1947195367753505,-1.1139249726109206
1683691944838264300,2.280264404296875,-1.2661353494681418,-1.3536317004829643,-1.4319279692150653
1683691944848235300,2.2902353515625,-1.1049917245708405,-0.40900516378283497,-1.2280544790074228
1683691944858207200,2.300207275390625,-0.5138333194792271,0.06274491772651672,-0.4044095065556466
1683691944868178400,2.310178466796875,-0.16174539018273354,0.3239069599509239,0.723203653537482
1683691944878149400,2.3201494140625,0.1589794326007366,0.3331482510268688,1.6826228318303822
1683691944888121300,2.330121337890625,0.5863968897782266,0.40340076790452,2.176473393727839
1683691944898092300,2.34009228515625,0.8522516198635101,0.09726561148762702,2.391262684094906
1683691944908064300,2.350064208984375,1.004083518797159,-0.26689678648412224,2.219102867403626
1683691944918035200,2.36003515625,1.0199483927313238,-0.4701876544982195,2.021714501431584
1683691944928006100,2.370006103515625,0.6932043096583336,-0.6887953341096639,1.804621025775373
1683691944937978400,2.379978271484375,0.28211232966408134,-0.8857657669305801,1.2967398926988243
1683691944947949000,2.389948974609375,-0.20270269286260006,-0.7043389402002096,0.9374313644990324
1683691944957921300,2.39992138671875,-0.655350891277939,-0.18035656715035436,0.7560600673481822
1683691944967892200,2.409892333984375,-0.8316321718133985,0.3785527423739433,0.7789692337706685
1683691944977863400,2.419863525390625,-0.48953708261251444,0.6459586474239826,0.9308991862513124
1683691944987835100,2.429835205078125,-0.03950549643635749,0.5442682052314282,1.1836280389122664
1683691944997806300,2.439806396484375,0.08176752503924072,0.3475888643115759,1.6501457727260886
1683691945007778000,2.449778076171875,-0.08078801248259843,0.7195657354265451,1.7341143880061805
1683691945017749200,2.459749267578125,-0.22591763729862868,1.1187269660651684,1.518437647280097
1683691945027720200,2.46972021484375,-0.49649172405600545,1.8451432980388403,1.3396676186688243
1683691945037692400,2.4796923828125,-0.44661564025282857,2.4428601848632097,1.2393223074749111
1683691945047663000,2.4896630859375,0.22581958375163375,2.1928151644587515,1.7874070022545754
1683691945057635300,2.49963525390625,1.482105520182848,1.1215478687047957,2.7061282594561575
1683691945067606300,2.509606201171875,2.2396751153111456,-0.13762743249237536,2.474871526151895
1683691945077577500,2.519577392578125,1.2573778963863849,-0.639366994073987,2.3814156822107733
1683691945087549200,2.529549072265625,-0.04137603954859078,-1.4198118533551691,2.5302280871927736
1683691945097520400,2.539520263671875,-0.7433833219308406,-1.529532457268238,2.5596894517377016
1683691945107491300,2.5494912109375,0.2104313508858904,-1.0746171907037496,2.4362295146770774
1683691945117463300,2.55946337890625,-0.07779284925460815,-0.23248364475071429,2.3306673456177114
1683691945127434200,2.569434326171875,0.6900912191390991,0.9735375738859176,1.7915990471169352
1683691945137406500,2.579406494140625,0.8176070805270225,1.2675257809132336,0.6628318946830928
1683691945147377200,2.589377197265625,-0.017998524961993098,2.121757176417112,-0.22813217154294252
1683691945157348400,2.599348388671875,-0.33062311646342274,1.5436083288937805,-0.9430870521731675
1683691945167320300,2.6093203125,-0.37091775398347526,1.307005558386445,-1.3510178647227584
1683691945177291500,2.61929150390625,-0.4906337187428027,1.288068218204379,-1.6940004042826593
1683691945187263200,2.62926318359375,-0.3371791870433837,1.4729595061749219,-1.623338575951755
1683691945197234400,2.639234375,-0.03476272235605866,1.652775975099206,-0.9799487561024725
1683691945207205400,2.649205322265625,0.05695696370853111,1.6492513081043958,0.032173838374018666
1683691945217177300,2.65917724609375,0.0000806548876222223,1.3289356506437062,1.125691544380784
1683691945227148300,2.669148193359375,-0.24094109197258948,0.7014969947725535,2.084411926754564
1683691945237120500,2.67912060546875,-0.3009060235917568,0.12763386174440383,2.5212670743629335
1683691945247091200,2.68909130859375,0.3149135061562061,0.07208908465504646,2.1217316035844385
1683691945257062100,2.699062255859375,1.786584141564369,0.393275679731369,0.8353400864206254
1683691945267034400,2.709034423828125,2.1577193011581897,0.6342442442327737,-0.8369368540927767
1683691945277005300,2.71900537109375,0.968286813750863,0.597708118996024,-2.375697889085859
1683691945286977300,2.728977294921875,0.1802180537288077,0.45079964793920513,-3.1967773949638008
1683691945296948200,2.7389482421875,-0.18223171337246893,0.10058101964592933,-3.347407809153199
1683691945306919400,2.74891943359375,0.138962471355265,-0.13732523467540741,-2.6070105903610585
1683691945316891100,2.75889111328125,0.34037001897394653,-0.39816169820725916,-1.6588289915278553
1683691945326862300,2.7688623046875,0.33236732978224753,-0.8583084356844425,-1.2789888396918774
1683691945336834300,2.778834228515625,0.11245265922546387,-1.3743915799170732,-1.4683882527366279
1683691945346805200,2.78880517578125,-0.2437432716454379,-1.6201538084357976,-1.7627488002076743
1683691945356776200,2.798776123046875,-0.5605062233269215,-1.5552251169294118,-2.1742621474191544
1683691945366748400,2.80874853515625,-0.7510708807587623,-1.3395435538977383,-2.5504823551923037
1683691945376719400,2.81871923828125,-1.0100082326710225,-1.1758990520954131,-2.759263052794337
1683691945386691300,2.82869140625,-1.2871651318848132,-1.1757324633568524,-3.010909663176536
1683691945396662300,2.838662353515625,-1.0109539890885353,-0.8482610889226198,-2.844307772873342
1683691945406633500,2.848633544921875,-1.3076549622058868,-0.6311877792716026,-2.650371300920844
1683691945416605200,2.858605224609375,-1.4453168814897537,-0.4136304854959249,-2.5995862855792042
1683691945426576400,2.868576416015625,-0.8267337322473526,-0.15680851830244064,-2.702289704206586
1683691945436548400,2.87854833984375,-0.0071580573443905445,0.0755944624274969,-2.7233663945049047
1683691945446519300,2.888519287109375,0.5513415046185255,0.34701194120645523,-2.2261923872731626
1683691945456490200,2.898490234375,0.63365446164608,0.5745446855515242,-1.3377765442252159
1683691945466462500,2.90846240234375,0.620537790441513,0.7485130129694938,-0.4045443849816918
1683691945476433200,2.91843310546875,0.6300000307917595,0.7178174304544925,0.2975906154334545
1683691945486405400,2.9284052734375,0.5737503203034401,0.5173848744809627,0.6846990047067404
1683691945496376300,2.938376220703125,0.6070850191503763,0.2629389887690544,0.6622222383521497
1683691945506347300,2.94834716796875,0.824196322724223,0.0008493103057146072,0.31969094969108697
1683691945516319200,2.9583193359375,0.8032616712450981,-0.22052023523449896,-0.09373042309880256
1683691945526290200,2.968290283203125,0.4258049074143171,-0.33057109401524065,-0.5556107063703238
1683691945536262400,2.978262451171875,0.25528058297038075,-0.32040801191926,-0.9877866101212799
1683691945546233000,2.988233154296875,0.3481318851470947,-0.30777006414234637,-1.154413634865731
1683691945556204300,2.998204345703125,0.3145154467493296,-0.31274142281413075,-1.0586876540355383
1683691945566176300,3.00817626953125,0.07908464263081551,-0.3133294518351555,-0.761597535470128
1683691945576147200,3.018147216796875,-0.02994680997431278,-0.3579085982739925,-0.4948386961519718
1683691945586119200,3.028119140625,0.02593874337673187,-0.36606326315701004,-0.32846155451536174
1683691945596090400,3.03809033203125,0.07778698576940223,-0.38383214408159255,-0.3107474725179374
1683691945606061300,3.048061279296875,0.19605099815474822,-0.3698573947429657,-0.41553062002882357
1683691945616033300,3.058033203125,0.5134522112071513,-0.30774492970108985,-0.5799686102963983
1683691945626004200,3.068004150390625,0.8199637997210025,-0.23545301595032214,-0.6564926086589694
1683691945635976200,3.07797607421875,0.7189367898732424,-0.26469606156945225,-0.5417120910078287
1683691945645947100,3.087947021484375,0.3353413771569729,-0.4246843789517879,-0.2857784509561956
1683691945655919400,3.09791943359375,0.43906712456941605,-0.5650257465779781,0.13203764966130255
1683691945665891000,3.10789111328125,0.4844757075697183,-0.718340577545762,0.46319509219713506
1683691945675862300,3.1178623046875,0.26369886722564695,-0.8898971676468849,0.4606752913959324
1683691945685834200,3.127834228515625,0.04014613699403126,-0.7734937249690294,0.15274791780002414
1683691945695805200,3.13780517578125,-0.08970189823508262,-0.29033786782622334,-0.3959679144900292
1683691945705776000,3.147776123046875,-0.2043675573348999,0.2937222495675087,-0.9130746296167374
1683691945715748400,3.157748291015625,-0.222222947499156,0.9265577960461377,-1.0844690148934721
1683691945725719300,3.16771923828125,-0.2615893277257681,1.2631810297071933,-0.8089175050497055
1683691945735690200,3.177690185546875,-0.12533318358659742,1.1273708757698535,-0.33928777669519183
1683691945745662200,3.187662109375,-0.00719253956930479,0.6780033064603805,0.06456497276052832
1683691945755633400,3.19763330078125,-0.24063714058995245,0.254642285066843,0.14102379693239928
1683691945765605000,3.207605224609375,-0.6203343768239021,0.08141805401444435,0.009805646960437297
1683691945775576300,3.217576416015625,-0.9585387421965599,-0.03145020027458668,-0.15710487090051173
1683691945785548300,3.22754833984375,-1.0068296026349066,-0.12060673958659171,-0.20565788940638302
1683691945795519200,3.237519287109375,-0.9951789123296737,-0.1608405502974987,-0.180433724039793
1683691945805490200,3.247490234375,-1.0064835656762123,-0.16789689854979514,-0.19580416552051902
1683691945815462400,3.25746240234375,-1.016629696637392,-0.19742986702620982,-0.29110417602360245
1683691945825433300,3.267433349609375,-1.0250655165493487,-0.25020108774900435,-0.3996171577125788
1683691945835404300,3.277404296875,-1.102880577635765,-0.3192372145742178,-0.5314955251589417
1683691945845376300,3.287376220703125,-1.1995721886277197,-0.3697790688097477,-0.6431563033543527
1683691945855347500,3.297347412109375,-1.3103449319422245,-0.3183721221774816,-0.7195993454352021
1683691945865319200,3.307319091796875,-1.4048247121036053,-0.13366729668974875,-0.6193257843032479
1683691945875290400,3.317290283203125,-1.37695237031579,-0.044882513299584384,-0.3771471864249557
1683691945885261300,3.32726123046875,-1.4126327555060385,-0.16325287213623524,-0.08527261055074632
1683691945895233300,3.3372333984375,-1.3536965824127196,-0.2952238863021135,0.2713780966166407
1683691945905204200,3.347204345703125,-1.1246224538445473,-0.26851766568422314,0.714960433588177
1683691945915176400,3.357176513671875,-0.9445663309454917,-0.15168576846122742,1.1633783009573817
1683691945925147400,3.3671474609375,-0.7391197462022304,-0.019512509721517562,1.5280534707568585
1683691945935118000,3.3771181640625,-0.4735550851047039,0.19027824170589447,1.8133171040587126
1683691945945090300,3.38709033203125,-0.004049567651748657,0.49672377924621103,2.06719088897109
1683691945955061200,3.397061279296875,0.5477221450775861,0.7722171291619538,2.1093819712296127
1683691945965033200,3.407033203125,0.975280618160963,0.8540788352906703,1.836046383869648
1683691945975004200,3.417004150390625,1.299933428043127,0.8882102374732493,1.4716270885273814
1683691945984975400,3.426975341796875,1.4813269370257853,0.9571347206175327,1.3176819968320428
1683691945994947000,3.436947021484375,1.373797121155262,0.9116530723810196,1.4106807446554301
1683691946004918300,3.446918212890625,1.0429086317539213,0.7345645671159029,1.5931223013862967
1683691946014890200,3.45689013671875,0.7428864052593708,0.5301180993258953,1.7221008557379245
1683691946024861400,3.466861328125,0.4320563690245151,0.40371699424684043,1.7203638028122483
1683691946034832100,3.47683203125,0.2167196739077568,0.38307986440956593,1.5555129939600825
1683691946044804400,3.486804443359375,0.2631330683027394,0.4043085303992033,1.2921787222631276
1683691946054775300,3.496775390625,0.40650337356235827,0.38708559291958805,1.0100707034479826
1683691946064747300,3.506747314453125,0.38603929873704906,0.3329787396788597,0.7904244015038013
1683691946074718200,3.51671826171875,0.10023735730741172,0.2940472437381744,0.6470696774058043
1683691946084689400,3.526689453125,-0.2821545613706112,0.22679683128595352,0.5276444026887417
1683691946094661000,3.5366611328125,-0.4941595547813922,0.13689151943325994,0.41415524002239107
1683691946104632300,3.54663232421875,-0.37137832069993015,0.032386019819974896,0.36747751386910676
1683691946114603300,3.556603271484375,-0.18536000146083534,-0.2453624155461788,0.3455230178229511
1683691946124575500,3.566575439453125,0.01251351767964661,-0.45106385183334347,0.3852193606562912
1683691946134546200,3.576546142578125,0.08288052778244018,-0.6528636045068502,0.3359337900921702
1683691946144518400,3.586518310546875,0.0002174421429634094,-0.8246598485827445,0.17586626999378202
1683691946154489300,3.5964892578125,0.08061024476289749,-0.9652209964394569,-0.07741407907009125
1683691946164460300,3.606460205078125,0.17827099304795263,-1.1141139193117617,-0.4279261373519897
1683691946174432300,3.616432373046875,-0.06870104965195059,-1.3268740419387817,-0.8743751888662576
1683691946184403200,3.6264033203125,-0.6042692310772836,-1.7267980736434458,-1.381352066579461
1683691946194375200,3.636375244140625,-1.2207201905965803,-2.302227140814066,-1.781966418635845
1683691946204346000,3.64634619140625,-1.6668123914971946,-3.190352038091421,-2.030491389866173
1683691946214317300,3.6563173828125,-1.8981765306986866,-4.4216292785376305,-2.000644533134997
1683691946224289300,3.666289306640625,-1.6387629395768046,-5.716559783726931,-1.555562386059761
1683691946234260200,3.67626025390625,-1.030404247228801,-7.022879697936773,-0.8517924779191612
1683691946244232200,3.686232177734375,-0.39135114140957594,-8.268250930187106,-0.02306143437474966
1683691946254203400,3.696203369140625,0.32060821066647766,-9.142645408275722,1.0073694086000322
1683691946264174300,3.70617431640625,0.9901195831134915,-9.722709734031557,1.868421005512774
1683691946274146300,3.716146240234375,1.7353709639385342,-9.87205566136837,2.270918687097728
1683691946284117200,3.7261171875,2.901570167535543,-9.368238708990813,2.1207646582484245
1683691946294088400,3.73608837890625,4.7197579463705415,-8.446047875982522,1.442229729129374
1683691946304060200,3.74606005859375,6.650697075116634,-6.019278994220495,0.5221154101341963
1683691946314031400,3.75603125,7.370367439961433,-2.972341739851236,0.6382701387479901
1683691946324003300,3.76600341796875,5.983715513408184,-1.727185611656308,2.940030831094086
1683691946333974300,3.775974365234375,2.8560093165829774,-1.429142576280236,5.773500983610749
1683691946343945200,3.7859453125,-4.008030357223749,-1.0338386055916546,6.6076634045541285
1683691946353917400,3.79591748046875,-10.022606288319826,-0.36323476173281666,4.660543833118677
1683691946363888400,3.805888427734375,-8.073830181849003,0.10066168366670608,1.4657856690227984
1683691946373860400,3.8158603515625,-2.789274744698405,1.3820230977088213,-1.6437608939945696
1683691946383831300,3.825831298828125,3.1577526677817103,3.386209541234374,-4.933586867272854
1683691946393802200,3.83580224609375,6.3561798757791514,5.231417721202969,-8.107224501928687
1683691946403774200,3.845774169921875,2.2561302832886576,6.994345092847943,-10.172845949625968
1683691946413745200,3.8557451171875,-1.4065128113210201,8.140501333108544,-10.996575239360332
1683691946423716400,3.86571630859375,-0.7395414787456392,7.956243082344532,-11.338477290207146
1683691946433688000,3.87568798828125,2.645055951116979,6.4645017188102,-9.494413604098558
1683691946443659300,3.8856591796875,4.3643195376023645,4.8368169303476805,-5.363427898335456
1683691946453631200,3.89563134765625,3.575382159785926,3.679792674592137,-1.7371452801346778
1683691946463602400,3.9056025390625,2.8739935938239096,2.7136913881868123,0.5462281071275472
1683691946473573000,3.915572998046875,3.104654114800691,2.2402000159680844,1.7791846789628267
1683691946483545300,3.92554541015625,3.9316204867601394,2.8844302321642634,1.3785948768258094
1683691946493516300,3.935516357421875,3.3512451953589912,4.338241970276832,-0.5634563053041696
1683691946503488300,3.94548828125,2.6743071800425646,6.239529764863848,-3.0057489194124933
1683691946513459200,3.955459228515625,2.290990292006731,8.017003548255563,-5.40460103572309
1683691946523430400,3.965430419921875,1.8197778245054184,9.464468547689915,-7.374597040355205
1683691946533402000,3.975402099609375,1.6487839828535913,10.65259813580513,-8.98112564354241
1683691946543373300,3.985373291015625,1.8300728624179958,11.481660603260993,-10.359032538104056
1683691946553344300,3.99534423828125,2.2164096827968955,11.92285304942131,-11.244527086877822
1683691946563316200,4.005316162109375,2.4038927408263087,11.844096908092498,-11.190210974800586
1683691946573287200,4.015287109375,2.6894527267262336,11.40779223397374,-9.93572646176815
1683691946583259400,4.02525927734375,2.3571952870592474,10.466888517189025,-7.925027275347709
1683691946593230300,4.035230224609375,1.2284893632933496,9.109313047516345,-5.6004860113948585
1683691946603201300,4.045201171875,0.08841215068548917,7.8304826132565735,-3.406119818101823
1683691946613173200,4.05517333984375,-0.593107347202301,6.84690236878395,-1.5211594734594225
1683691946623144400,4.06514453125,-0.6646386518441141,6.160026604560017,-0.026007716959714888
1683691946633116200,4.0751162109375,-0.26511487150341273,5.702569252297282,0.8871066601455211
1683691946643087400,4.08508740234375,0.10512757703438401,5.450239335826039,1.4703160059288143
1683691946653058300,4.095058349609375,0.11668225961923599,5.037764450106025,1.4231044651597737
1683691946663032600,4.105032470703125,-0.2410965747952461,3.4673511163949966,0.4141404808446765
1683691946673003500,4.11500341796875,-1.0967713009752333,0.9759662623375653,-1.4065455445468424
1683691946682974500,4.124974365234375,-1.4511680917359888,-1.7654320479422807,-3.070128160342574
1683691946692946400,4.134946533203125,-0.8673954129815101,-4.675336913102865,-3.890722074660659
1683691946702917600,4.144917724609375,-0.06313318639174104,-7.202122750887274,-3.213133194220066
1683691946712889300,4.154889404296875,0.5657689661607146,-9.090437082132697,-1.2401320164225995
1683691946722860500,4.164860595703125,0.440234707044065,-10.344772542083263,1.1333207240849732
1683691946732831500,4.17483154296875,-0.7648936544060707,-11.058708747190236,3.4927956465139984
1683691946742803500,4.184803466796875,-2.4006806469120083,-11.4255114305377,5.498482849991321
1683691946752774400,4.1947744140625,-3.2442382343187925,-11.515277626180648,6.9096537162512535
1683691946762746600,4.20474658203125,-3.027414223253727,-11.765030970162153,7.532064899349212
1683691946772717600,4.214717529296875,-2.2518109587848185,-11.876679327267407,7.206379823809861
1683691946782688500,4.2246884765625,-1.614534945640713,-11.798116078162193,6.2014434875756494
1683691946792660500,4.234660400390625,-1.5760126150228082,-11.912979305660723,4.016929118472338
1683691946802631700,4.244631591796875,-1.5131459706127643,-11.989883681643008,1.8774135825246572
1683691946812602600,4.2546025390625,-1.3979508808113634,-11.928753213375806,0.6707699942059815
1683691946822574600,4.26457470703125,-1.7197149835146963,-11.621574100863933,0.36189255334362386
1683691946832545500,4.274545654296875,-2.46734639134407,-10.778085633170605,1.1418337008863686
1683691946842517500,4.284517578125,-3.0402889023959636,-9.543530978488922,2.3696347896546124
1683691946852488400,4.294488525390625,-2.93701089875102,-8.808303563550114,2.8721935586646197
1683691946862459400,4.30445947265625,-2.0415246789254247,-8.777244408419728,2.2775242228426036
1683691946872431600,4.314431640625,-0.8839454196356237,-9.120768507510423,1.0879342067860067
1683691946882402300,4.32440234375,0.14079028043746947,-9.51395533991456,0.10522826092988252
1683691946892373500,4.33437353515625,0.8440389411829411,-9.911751711940765,-0.5803371513478458
1683691946902345500,4.344345458984375,0.9122491385780275,-10.20311249307394,-0.8922915154375135
1683691946912316700,4.354316650390625,0.440837056851387,-10.315957951009272,-0.8410141865342855
1683691946922288400,4.364288330078125,-0.2874994295299053,-10.340499687069654,-0.5771940310165286
1683691946932259600,4.374259521484375,-0.9872891089279204,-10.33985554394722,-0.47588542774841186
1683691946942230500,4.38423046875,-1.5264144713781773,-10.247208824431896,-0.7279745212011038
1683691946952202500,4.394202392578125,-1.7301181579768656,-10.016751717072724,-1.1714210298985241
1683691946962173400,4.40417333984375,-1.3313526486575602,-9.704411860796808,-1.701596120108664
1683691946972145700,4.414145751953125,-0.4986147806245833,-9.488530391278863,-2.191580946488678
1683691946982116400,4.424116455078125,-0.6127966747954487,-9.36494025196731,-2.5212892861947416
1683691946992087600,4.434087646484375,-1.5405204458810389,-9.188582983586192,-2.3902007539518175
1683691947002059500,4.4440595703125,-2.4527041180074214,-8.303746021938323,-1.444595435347408
1683691947012030700,4.45403076171875,-2.055659441131353,-6.236257026803493,-0.09725421331077813
1683691947022001400,4.46400146484375,1.7793911613203583,-3.472227197998762,0.6341859381742775
1683691947031973600,4.4739736328125,8.043475960117577,0.7914853087335825,0.8066185804575681
1683691947041944600,4.483944580078125,12.46089025130868,6.782459414967894,0.6677959468312561
1683691947051916500,4.49391650390625,7.820351095342636,12.736806795072555,2.0906271480076013
1683691947061887500,4.503887451171875,-2.814247273391485,15.10854410996437,4.07330391664505
1683691947071858700,4.513858642578125,-4.639027582359314,18.26273411682844,4.029781293521821
1683691947081830400,4.523830322265625,-3.6284465182363985,21.909110259509085,1.989502669134736
1683691947091801600,4.533801513671875,-4.714667052972317,19.305006788766384,-2.0780428301140663
1683691947101772500,4.5437724609375,2.0914777734875676,14.242687158596516,-6.927752267521619
1683691947111744800,4.553744873046875,5.890474919652939,11.51150862903595,-10.049138905936479
1683691947121715500,4.563715576171875,0.6542344544686377,10.673885253983736,-11.06282495033741
1683691947131687700,4.573687744140625,-0.42832127414941784,9.725570384159683,-12.705289374780655
1683691947141658600,4.58365869140625,2.692035436695814,8.921912991595267,-14.615115280610322
1683691947151629600,4.593629638671875,3.821722188192606,9.962855291712284,-13.040580483055114
1683691947161601500,4.6036015625,2.5212147596538066,12.01527998870611,-9.153743140873312
1683691947171572500,4.613572509765625,1.4311596151910722,12.537842558085918,-5.48772530913353
1683691947181543700,4.623543701171875,1.1375075082503259,11.22265427776575,-2.526970838962495
1683691947191515400,4.633515380859375,1.8656629389762878,9.235071763038635,-0.5107642872974276
1683691947201486600,4.643486572265625,2.7313465796038505,7.267855159991979,0.1475993759304285
1683691947211458600,4.65345849609375,2.886116577816009,5.825999817132949,0.1428562730565667
1683691947221429500,4.663429443359375,2.751864759236574,4.954289463561773,0.17912585631161926
1683691947231400400,4.673400390625,2.330071425551176,4.371688897326588,0.35441783354878426
1683691947241372700,4.68337255859375,1.5728101657196878,3.9913147847443815,0.6587848112493753
1683691947251343600,4.693343505859375,0.811825063059479,3.614879765176773,0.9429784772321581
1683691947261314600,4.703314453125,0.1427063431918621,3.0880735668778416,1.0383797561526298
1683691947271286500,4.71328662109375,-0.14881357402577997,2.2296400435090065,0.9170584385558962
1683691947281257700,4.7232578125,-0.28925168002471324,1.0011574022173881,0.591003652921319
1683691947291229400,4.7332294921875,-0.2866118330404162,-0.5031038356721401,0.21806641234159468
1683691947301200600,4.74320068359375,-0.006058130995184183,-2.123621216723323,-0.0013949614897370338
1683691947311171600,4.753171630859375,0.20638065072298048,-3.6852421721696853,0.15184125128388404
1683691947321143600,4.7631435546875,0.5418845249652863,-5.084476516920327,0.6461801812201738
1683691947331114500,4.773114501953125,0.3902420111238956,-6.256838042539358,1.3596641125150024
1683691947341085400,4.78308544921875,-0.5947358251869678,-7.18594318498075,2.354269316609949
1683691947351057400,4.793057373046875,-2.1892039882242678,-7.876219113036989,3.513572769343853
1683691947361028400,4.8030283203125,-4.375288967645168,-8.425769058063626,4.46239968034327
1683691947371000600,4.81300048828125,-5.8977826123178,-8.875797137108444,4.9376937180697915
1683691947380971500,4.822971435546875,-5.719630861735344,-9.436469949173926,4.876685707138479
1683691947390942500,4.8329423828125,-3.974721377339959,-10.270475133728981,4.307351157450675
1683691947400914400,4.84291455078125,-1.7581684866800904,-11.292476586532592,3.5660803706943986
1683691947410885600,4.8528857421875,-0.7053951712548733,-12.136475926357507,3.0092700792759657
1683691947420856600,4.862856689453125,-0.9975113007999956,-12.232224119019508,2.8730089667007324
1683691947430828500,4.87282861328125,-1.5663187578737734,-11.490677437931298,3.1269039405316112
1683691947440799500,4.882799560546875,-1.8410791173398493,-9.756272396415472,3.523542666955292
1683691947450771500,4.892771484375,-1.7834686398923396,-7.409663677561283,3.8275615618705747
1683691947460742400,4.902742431640625,-1.605679439011961,-5.706856720358133,3.9527781333401797
1683691947470713600,4.912713623046875,-1.21774161317721,-4.977113289788365,3.879462137238681
1683691947480685600,4.922685546875,-0.8435061494804919,-5.071277428129315,3.3370795996233817
1683691947490656500,4.932656494140625,-0.3591374094165861,-5.7436015199095,2.188207670663297
1683691947500627500,4.94262744140625,-0.3905719737306237,-6.673483491942286,0.6901391499340533
1683691947510599700,4.952599609375,-1.066412256938219,-7.303297060251236,-0.6517068356871605
1683691947520570600,4.962570556640625,-1.163831013160944,-7.590458636128902,-1.8190861889794467
1683691947530542600,4.97254248046875,0.26223522441387176,-7.618162635612487,-3.052280368962884
1683691947540513500,4.982513427734375,4.117374821300804,-6.704023007112741,-4.324108230984211
1683691947550484500,4.992484375,9.37559082531929,-3.8375007720828056,-4.907822311419248
1683691947560456400,5.00245654296875,10.259855540037154,0.22442951763272284,-4.301647392851114
1683691947570427400,5.012427490234375,8.548020057725905,3.8135242686897515,-3.3040982442587614
1683691947580398600,5.022398681640625,5.851006248095631,6.206062964069843,-1.5813158359974622
1683691947590370300,5.032370361328125,0.35819705982655287,6.833718477562069,0.8780623529464006
1683691947600341500,5.042341552734375,-3.5495606130480764,5.593802588108182,2.8327473912000656
1683691947610312400,5.0523125,-5.177884283936024,4.009365405219793,3.0811312003940343
1683691947620284700,5.06228466796875,-3.474855208414793,3.2018221111327407,1.4287696513146162
1683691947630255400,5.07225537109375,1.1952312368139624,2.947837997713685,-1.1272966414898633
1683691947640227600,5.0822275390625,3.823006967306137,3.7746570701569317,-3.4822277830094097
1683691947650198500,5.092198486328125,1.0196443682834506,5.064115281414986,-5.137586760339141
1683691947660166100,5.102166259765625,-2.125469474938512,5.830840827423334,-6.563023467838764
1683691947670138000,5.11213818359375,-1.999441294825077,5.946978897163271,-8.12631615588963
1683691947680109000,5.122109130859375,-0.19643968694508074,5.499165571558475,-9.293806276080012
1683691947690080000,5.132080078125,1.3168188041314481,4.501357479768991,-9.797570621487498
1683691947700052000,5.142052001953125,1.8784736129716038,3.125575906798243,-8.218033485600351
1683691947710023000,5.15202294921875,1.9912056736603378,1.8847037395328283,-4.690107781255245
1683691947719994000,5.161994140625,1.574863298857212,0.9000883067935704,-1.6747545826733112
1683691947729965800,5.1719658203125,1.1626681068614124,0.3645072658866644,0.17656711173951625
1683691947739937000,5.18193701171875,1.0099208466485141,0.8012579302072524,1.1579267575532197
1683691947749909000,5.191908935546875,1.6861612350896,2.2643197272241116,0.9202765238195657
1683691947759880200,5.201880126953125,2.2243714554563163,3.6861791607588525,-0.5088204597532748
1683691947769851000,5.211850830078125,2.3684221989944576,5.048702608227729,-1.9963298848062752
1683691947779823000,5.221822998046875,2.7715511642202735,6.248772224983573,-3.513300382143259
1683691947789794000,5.2317939453125,2.7824761705994603,6.95492435208559,-4.947735219612717
1683691947799765000,5.241764892578125,3.2447140351369974,6.998200599232316,-6.332554670041799
1683691947809737000,5.251737060546875,4.028332848279178,6.586634645050764,-7.3406813267499205
1683691947819708200,5.261708251953125,4.314798550847173,6.221229553541541,-7.951215609571337
1683691947829679900,5.271679931640625,4.286266283845901,6.444625051951408,-8.55099527414441
1683691947839651000,5.281651123046875,3.9005063865721223,7.454601720440388,-9.094356301403046
1683691947849622000,5.2916220703125,2.8861867204427716,8.954273292452097,-9.359708196532726
1683691947859594000,5.301593994140625,1.8875636590085922,10.419850871682167,-9.533306521594524
1683691947869565000,5.31156494140625,1.7529646344266832,11.416964551466704,-9.487675235754251
1683691947879535900,5.321535888671875,1.862960109758377,11.614582050019502,-8.900991784119606
1683691947889508000,5.331508056640625,1.3103785419508813,10.405074158310889,-7.320951374885439
1683691947899479000,5.34147900390625,0.45775794264450664,7.640216061988473,-4.8384302107632156
1683691947909450000,5.351449951171875,-0.07465045957565307,4.319803227266669,-2.184456793697178
1683691947919422000,5.361421875,-0.1005868648648262,1.484834068363905,-0.21247838307619094
1683691947929393200,5.37139306640625,0.4042413103818893,-0.9183581229776143,1.0882833124846218
1683691947939363800,5.38136376953125,0.8453869947910309,-2.8694021743804217,1.9464482480451464
1683691947949336000,5.391336181640625,0.9297627295672893,-4.5169349881291385,2.393276362004876
1683691947959307000,5.40130712890625,0.6088822778306902,-5.935255726143717,2.5672204317644236
1683691947969279000,5.411279052734375,0.44985257634744047,-6.965122505494952,2.772983827371895
1683691947979250000,5.42125,0.8903599628530442,-7.641473368573188,3.132464205007255
1683691947989221000,5.43122119140625,1.7473041244469583,-8.171027988797425,3.6636300598204135
1683691947999192800,5.44119287109375,1.4396248073279856,-8.646497383090853,4.258635641859471
1683691948009164000,5.4511640625,-0.8030582576274872,-9.009305443844198,4.838414720933139
1683691948019135000,5.461135009765625,-3.847893571281433,-9.224949597474932,4.997617733156681
1683691948029107200,5.471107177734375,-6.060345164102316,-9.376451826062798,4.7253678952068086
1683691948039078000,5.481077880859375,-6.8340171682477,-9.480727024051546,4.180920826277137
1683691948049049000,5.491049072265625,-6.217023918545245,-10.062338579249381,3.3166748172372578
1683691948059021000,5.50102099609375,-4.44333900604248,-11.228780067169666,2.3193906031914056
1683691948068992300,5.5109921875,-2.071045372442156,-12.635530194377898,1.5318898340493439
1683691948078964000,5.5209638671875,-0.21355185752660036,-13.508703021717071,1.3128845334224402
1683691948088935200,5.53093505859375,0.030164690508693456,-12.706229285979271,2.4242682971179486
1683691948098906000,5.540906005859375,0.014243483277410268,-10.388303056252003,4.169735999917984
1683691948108878000,5.550878173828125,0.08187164300084114,-8.586020410296321,5.209992071336507
1683691948118849000,5.56084912109375,-0.7336519823156297,-7.565660294958948,5.6370168759346
1683691948128820000,5.570820068359375,-2.067736686285585,-6.89227880308032,5.539056852442026
1683691948138792000,5.5807919921875,-2.833175261223316,-6.446421872240305,4.889482352608442
1683691948148763000,5.590762939453125,-2.4078505385413767,-6.319242184004187,3.802002757722139
1683691948158734000,5.600734130859375,-1.382055246412754,-6.5492603154242035,2.77224791431278
1683691948168706000,5.6107060546875,-0.706584161843732,-7.015949606412649,2.290111755606532
1683691948178677000,5.620677001953125,-0.48079511936083436,-7.6087576784074304,2.2469538741424677
1683691948188649000,5.63064892578125,-0.3397999640010297,-8.13655464130938,2.227960419858992
1683691948198620200,5.6406201171875,-0.2604208684682846,-8.470312548667192,1.9884481916457413
1683691948208591000,5.650591064453125,-0.15978731491751968,-8.699269188335537,1.4612430571570991
1683691948218563000,5.66056298828125,0.21932211149111389,-8.935741025939583,0.581658024688065
1683691948228534000,5.670533935546875,0.6150384623728692,-9.155456959053874,-0.652022769768536
1683691948238505200,5.680505126953125,0.3518260634899139,-9.254221869188546,-2.0415034900069235
1683691948248477000,5.690476806640625,-0.13343348793387413,-9.296004078385232,-3.1613182513087987
1683691948258448100,5.7004482421875,0.5425083559520543,-8.994163988813757,-3.9916055843845006
1683691948268419000,5.710419189453125,3.532200312924385,-7.070215449607372,-4.793592997910082
1683691948278391000,5.72039111328125,9.008129970324038,-2.671265035867691,-5.0323500238418575
1683691948288362000,5.730362060546875,8.024385475200415,1.453218448394537,-3.9303517819985747
1683691948298334200,5.740334228515625,4.709766421449184,5.654683465528488,-2.4224966112703084
1683691948308305200,5.75030517578125,3.0892659915328022,11.153360376787186,-0.2164119231328368
1683691948318275800,5.76027587890625,-7.459144624567031,15.740208859097956,2.5512507092162964
1683691948328248000,5.770248046875,-10.785949790674447,21.305907050228118,3.847719383758306
1683691948338219000,5.780218994140625,-3.135250328594446,24.91064185348749,3.285789849629998
1683691948348190000,5.79018994140625,6.843150907295942,19.958088419938086,0.2108417217850685
1683691948358162000,5.800161865234375,5.434976884764432,10.801268940359353,-3.5698756713241337
1683691948368133000,5.810133056640625,-0.05861366314068436,5.783877416196465,-5.82463788112998
1683691948378104000,5.82010400390625,-1.5190953805364666,3.7700826018482445,-7.946528328537941
1683691948388076000,5.830075927734375,0.7999041775107383,4.490544409331679,-10.467190130484104
1683691948398047000,5.840046875,4.438688549888134,7.671296259906888,-11.676837138402462
1683691948408018200,5.85001806640625,3.5022400589466094,10.68629816083312,-9.973905093514919
1683691948417990000,5.859989990234375,0.7202081249833107,11.157506975072621,-6.095526367598771
1683691948427961000,5.869961181640625,-0.48302185549959537,9.496196395862102,-2.7710733175754547
1683691948437933000,5.87993310546875,0.20230755606517195,7.100071074166894,-0.813334736970067
1683691948447904000,5.889904052734375,1.4648716229178012,5.045315888398886,0.228073427093029
1683691948457875000,5.899875,1.890605803183466,3.408259460479021,0.49870472393035886
1683691948467847200,5.90984716796875,1.7682548502780495,2.265882738757133,0.10915654028952121
1683691948477818000,5.919818115234375,1.410938811069727,1.9883195968300102,-0.4037368679910898
1683691948487788800,5.929788818359375,0.6410299588501454,2.252017295011878,-0.9193325209677219
1683691948497761000,5.939760986328125,-0.2529366501927376,2.352944936138391,-1.3993021492898463
1683691948507732000,5.94973193359375,-0.9638089376844465,2.1420558680802584,-1.6853858668029307
1683691948517703200,5.959703125,-1.409023771228641,1.5018734659701585,-1.699939877334237
1683691948527675000,5.9696748046875,-1.5844846752919255,0.4624439085036516,-1.5547876022949814
1683691948537646000,5.97964599609375,-1.5785013630986213,-0.740517338040471,-1.2648738050997257
1683691948547617000,5.989616943359375,-1.3821978697538375,-2.0140952585995198,-0.9155921653956174
1683691948557589000,5.999589111328125,-1.1461642774365841,-3.199834152185917,-0.5387380436331033
1683691948567560000,6.009559814453125,-0.9632735156334936,-4.225591742652655,-0.21697627901732922
1683691948577532200,6.0195322265625,-0.7803894027668983,-5.041095055833458,0.11401245588809251
1683691948587502800,6.0295029296875,-0.8525275872606783,-5.526159961467981,0.4464037510678172
1683691948597474000,6.03947412109375,-1.0750901419777423,-5.714872269031405,0.6680836777314544
1683691948607446000,6.049446044921875,-1.2396867568731307,-5.789474213290214,0.7651680874332785
1683691948617417200,6.059417236328125,-1.41419693608284,-5.784089013120532,0.6562015167579054
1683691948627388000,6.069387939453125,-1.5617932432733475,-5.711553938263655,0.36778468012213705
1683691948637360000,6.079360107421875,-1.7173825950443744,-5.572222039940953,0.02220394076257944
1683691948647331000,6.0893310546875,-2.0961445962548253,-5.382764466968179,-0.25492753174901006
1683691948657302000,6.099302001953125,-2.610226922059059,-5.231542808887363,-0.43334114813804625
1683691948667274200,6.109274169921875,-2.862071685361862,-5.193795554295182,-0.3623673312485218
1683691948677245200,6.1192451171875,-2.8094378272831437,-5.185726814129948,0.07125847904980183
1683691948687216400,6.12921630859375,-2.44196893511191,-5.004195942503213,0.8500339438140392
1683691948697188000,6.13918798828125,-2.2574878353774546,-4.368787915188074,1.8948548389300703
1683691948707159300,6.1491591796875,-1.6895757197082042,-3.2592852890640494,3.0409146330788728
1683691948717131300,6.15913134765625,-0.5605342803776264,-1.8421160591721533,4.0159950524926185
1683691948727102200,6.169102294921875,0.9415548741698264,-0.43984220059514045,4.684934178009629
1683691948737073200,6.1790732421875,2.7884803794503212,0.5583037448465824,4.968775669553875
1683691948747045400,6.18904541015625,4.503851050150394,0.6404360846102237,4.386101453560591
1683691948757016000,6.19901611328125,5.178361253798007,0.10558218893408775,3.546023671093583
1683691948766987000,6.208987060546875,4.5133156285882,-0.4928104051947593,3.0824694632604714
1683691948776959200,6.218959228515625,2.508716512608528,-0.8116787864565849,2.747115811143815
1683691948786930200,6.22893017578125,0.293525850212574,-1.0252858813017607,2.3171944083213805
1683691948796901000,6.238901123046875,-1.056772394998744,-0.9292202932536602,1.9482026904970406
1683691948806873000,6.248873046875,-1.3822260729350149,-0.7061971352875233,1.8209034675344824
1683691948816844300,6.25884423828125,-1.3455074307382107,-0.6008744740724563,2.098323693859577
1683691948826815200,6.268815185546875,-1.3626912052512168,-0.3719429688453674,2.3773802892148495
1683691948836787200,6.278787109375,-1.3244915307164191,-0.0034410803645849226,1.9680223664715886
1683691948846758100,6.288758056640625,-1.436024006357044,0.45866322092115874,0.6063116966903209
1683691948856729300,6.298729248046875,-1.820367168700695,1.2065052027612924,-1.1999936289101838
1683691948866701000,6.308701171875,-1.3993828133106232,2.2045126165151596,-3.2346541211545468
1683691948876672300,6.31867236328125,-0.22236863958016037,3.4410166516989467,-5.28037318302989
1683691948886643200,6.328643310546875,0.14206212700419127,4.752238366475701,-6.869110108938813
1683691948896615200,6.338615234375,0.2747369785904884,6.022875557407737,-7.6564932430505745
1683691948906586000,6.348586181640625,0.4440378987193107,7.281656306329369,-7.336282215008139
1683691948916558300,6.358558349609375,-0.09681552963256836,8.339374969202279,-6.0162529243975875
1683691948926529300,6.368529296875,-0.27922632589899,9.298570129480957,-4.242067953418195
1683691948936500200,6.378500244140625,-0.1564005220234394,10.264463910615444,-2.5208999946162103
1683691948946472200,6.38847216796875,-0.019967267751693725,11.30163721358776,-0.9815300339445471
1683691948956443400,6.398443359375,0.299719444155693,12.046180153882503,0.4480184927880764
1683691948966414300,6.408414306640625,0.7068505576949566,11.837544417709111,1.8109286014869808
1683691948976386300,6.41838623046875,0.963334305910021,10.13196215057373,2.7667244747161863
1683691948986357200,6.428357177734375,1.313658002012968,7.264881112617254,2.7318945688754317
1683691948996328200,6.438328125,1.4138438848614692,4.733704930919409,1.7774731988698242
1683691949006300200,6.448300048828125,1.113723385624215,3.0307652872473,0.8057502731904387
1683691949016271000,6.45827099609375,0.7654549415506422,1.7826999936074017,0.2044108119547367
1683691949026242300,6.4682421875,0.3621824031356722,0.6888795052617788,-0.03803220901340246
1683691949036214000,6.478214111328125,-0.06421214073486625,-0.42656010969579217,-0.007092880870401859
1683691949046185200,6.488185302734375,-0.29111645098328587,-1.6467542305916547,0.1730260781317949
1683691949056156200,6.49815625,-0.2634405816156417,-3.042130730870366,0.42359073849618434
1683691949066128100,6.508128173828125,-0.22962847451530397,-4.448016350203752,0.7188447276756167
1683691949076099000,6.51809912109375,-0.21129764885902402,-5.82581160108447,1.0767828443050385
1683691949086071300,6.5280712890625,-0.28073402704820033,-7.183644260388612,1.4380115269124507
1683691949096042200,6.538042236328125,-0.44973333388194436,-8.333913781186938,1.772859567594528
1683691949106013200,6.54801318359375,-0.659415802629292,-9.218862386515736,1.9490163449674844
1683691949115985200,6.557985107421875,-1.0559854093395173,-10.020727634966374,1.9083532029286026
1683691949125956400,6.567956298828125,-1.7812287520110606,-10.842443831312655,1.7209160298675297
1683691949135927300,6.57792724609375,-2.540024674063921,-11.760443642371893,1.5096169197037814
1683691949145899300,6.587899169921875,-2.870802104306221,-12.63671911190152,1.4431012512668966
1683691949155870200,6.5978701171875,-2.8472996481657025,-13.337697635757923,1.5570882804527877
1683691949165841200,6.607841064453125,-2.746726811826229,-13.740547784042358,1.8749524531081319
1683691949175813000,6.617813232421875,-2.5363737503409385,-13.759411474466322,2.4091057992994784
1683691949185784000,6.6277841796875,-2.0628328398920592,-13.130711420357226,3.030248862157762
1683691949195755300,6.63775537109375,-1.3468436477780341,-11.55863512187004,3.2908298896238204
1683691949205727000,6.64772705078125,-0.45961993712410326,-9.804248784077167,3.2010362214520574
1683691949215698200,6.6576982421875,0.3112951695285737,-8.323750114569068,3.0804072700336573
1683691949225669000,6.667669189453125,1.1579952927447854,-6.908699192005395,3.0726614782124755
1683691949235641300,6.677641357421875,2.0077485199213028,-5.428493367964029,3.0015786479905247
1683691949245612000,6.687612060546875,2.2980523393474517,-3.8144267704874273,2.429345746512711
1683691949255584300,6.697584228515625,2.9520906867220997,-1.8409879319250582,0.9428107194498181
1683691949265555200,6.70755517578125,3.5595217428311705,0.4213590339213609,-1.5296189665079116
1683691949275526400,6.7175263671875,1.062997772319615,2.5727473784923554,-4.279584614124894
1683691949285498000,6.727498046875,-0.09207154997587204,4.478502089360356,-6.158372407612204
1683691949295469300,6.73746923828125,2.1098528036117554,6.459609270593524,-6.991875487864017
1683691949305440300,6.747440185546875,0.030490853723138568,7.843416913631558,-5.976436462315917
1683691949315412200,6.757412109375,-4.808473463916778,7.063488187178969,-2.9210733249068257
1683691949325383200,6.767383056640625,-3.157743899953365,5.609761789262294,-0.13320143274366855
1683691949335354000,6.77735400390625,1.420209328240156,5.26054853861928,0.8433230479985475
1683691949345326000,6.787326171875,3.9362078145503996,6.637828825715184,-1.052659625917673
1683691949355297000,6.797297119140625,4.508232626235484,9.61345265597701,-4.300174982210994
1683691949365268200,6.807268310546875,2.46921218521595,12.033794135040043,-6.690736240038276
1683691949375240200,6.817240234375,0.15099018741250037,12.29208383669853,-8.600174607855081
1683691949385211100,6.827211181640625,0.21498232872113585,11.291237400126457,-10.549850878036022
1683691949395182000,6.83718212890625,1.924363842009008,10.277364308720827,-11.753479648578166
1683691949405154300,6.847154296875,3.384077789902687,9.086457072585821,-11.299465130245684
1683691949415125200,6.857125244140625,2.8691373859643936,7.954158092764019,-8.815719977286458
1683691949425096200,6.86709619140625,2.49243173276186,7.560919237911701,-5.682021554309129
1683691949435068200,6.877068115234375,2.454711366176605,8.220140102490783,-2.8079490500301123
1683691949445039400,6.887039306640625,2.101431012225151,9.31880160112679,-0.35617899800240993
1683691949455010000,6.897010009765625,1.0688166877314447,10.278564916682242,1.374796653586626
1683691949464982300,6.906982177734375,0.38836335777044295,10.89351701594591,2.354648232924938
1683691949474953200,6.916953125,0.32851547665968533,10.842029989814758,2.275517997586727
1683691949484924200,6.926924072265625,0.5319150657452643,9.8559240262568,1.055180961088836
1683691949494896000,6.936896240234375,0.4195065379224717,7.851450582483411,-0.7866562811419368
1683691949504867000,6.9468671875,0.06821238935217261,5.235414681884646,-2.498144265189767
1683691949514838300,6.95683837890625,-0.09926584539413452,2.896747277423739,-3.6972666642233727
1683691949524810200,6.966810302734375,-0.41075419940724966,0.856856483310461,-4.256701166665554
1683691949534781200,6.97678125,-0.7145852436002343,-0.9355670319318771,-4.289928313484788
1683691949544752000,6.986752197265625,-0.6972435751117766,-2.5694921760886906,-3.9750519244685765
1683691949554724000,6.99672412109375,-0.47150005227103825,-4.179913695061207,-3.5615897812768815
1683691949564695000,7.006695068359375,-0.27675964352451266,-5.592020380866527,-2.986630377444625
1683691949574667300,7.016667236328125,-0.13412921511307357,-6.7276365224123,-2.3013383752807974
1683691949584638200,7.02663818359375,0.06737900726795196,-7.608409887883067,-1.5391425816565751
1683691949594609200,7.036609130859375,0.03884279474392533,-8.349676582986115,-0.6358031641125679
1683691949604581000,7.0465810546875,-0.2783656904816627,-9.001782062602043,0.33542847091853617
1683691949614552300,7.05655224609375,-0.5518134329792111,-9.70375719628036,1.3340157303869724
1683691949624523300,7.066523193359375,-0.7420321265175939,-10.43685227536559,2.2302742497593164
1683691949634495200,7.0764951171875,-0.8488029407143592,-11.162429818427562,3.0104841312408444
1683691949644466200,7.086466064453125,-0.7559060458302498,-11.821182480973004,3.610131109344959
1683691949654437400,7.096437255859375,-0.43909035931453105,-12.217421686685084,3.8541806887269017
1683691949664408800,7.106408935546875,0.14206336911320686,-12.319514279937744,3.772291217808425
1683691949674380000,7.116380126953125,0.445810022958368,-11.790201651775837,3.2276682077899572
1683691949684351000,7.12635107421875,-0.1421041395150125,-10.181903700828551,2.273630284143984
1683691949694323000,7.136322998046875,-1.4520787768401204,-8.440881871521473,1.6511469125926495
1683691949704294000,7.1462939453125,-2.7788018660008906,-7.410292623114586,1.6911226568892597
1683691949714265000,7.15626513671875,-3.4308675981283185,-6.924597602882981,2.1381778576031327
1683691949724237000,7.166237060546875,-3.408673301976919,-6.91991792063415,2.8562504318624735
1683691949734208000,7.1762080078125,-2.966612256288528,-7.2739844565272325,3.676941084553301
1683691949744179000,7.186178955078125,-2.006931358319521,-7.808457243931293,4.288501203291118
1683691949754151200,7.196151123046875,-0.8084685922384262,-8.501280518382787,4.427174053183197
1683691949764122000,7.2061220703125,0.027664251995086667,-9.237215204808116,4.051254874183237
1683691949774092800,7.2160927734375,0.5844786350667476,-9.61983037431538,3.541594748735428
1683691949784065000,7.22606494140625,0.7409643511556089,-9.315371042156219,3.453720650449395
1683691949794036000,7.236035888671875,0.39687268131002784,-8.084711056825519,3.478130284562707
1683691949804007200,7.246007080078125,-0.44068493502959605,-6.135295483407377,3.015055969201028
1683691949813979000,7.255978759765625,-0.9365702176250517,-3.834813724955916,2.2533009050816295
1683691949823950000,7.2659501953125,-0.719062462079525,-1.1539824038416147,1.2965230350777506
1683691949833921000,7.275921142578125,-1.9314158063471316,1.6396470289349554,0.10325023885518311
1683691949843893000,7.28589306640625,-1.0840111881233752,5.173558237430453,-1.194465513138473
1683691949853864000,7.295864013671875,2.9578713159501553,9.05533303552568,-1.8514549654036758
1683691949863835100,7.305835205078125,1.8480756982289253,10.223317076712846,-1.6916867205128072
1683691949873806800,7.315806884765625,-1.8674293641269206,10.246460636413097,-1.513754457899928
1683691949883778000,7.325778076171875,-1.7520890206359325,12.732457952213286,-1.2837979935392736
1683691949893749000,7.3357490234375,0.3610113865949213,16.247134298884866,-1.2160744106173516
1683691949903721200,7.34572119140625,0.26205168454051014,17.42148670606017,-2.9059406377047297
1683691949913692000,7.35569189453125,0.1762218054331839,15.349161376810073,-6.549884000280499
1683691949923663000,7.3656630859375,1.9050453935548661,12.552107230281829,-9.982603948277234
1683691949933635000,7.375635009765625,4.4056338370263575,10.068285504955053,-11.150542981278896
1683691949943606000,7.38560595703125,3.6820319779515263,9.377816100153327,-8.885213200229407
1683691949953578000,7.395577880859375,2.4420645044408738,8.528706285446882,-5.653412714940309
1683691949963549200,7.405549072265625,1.0031528138183057,7.788214081847667,-3.1256539404705164
1683691949973520100,7.41552001953125,0.04132905860170722,7.626146620103716,-2.1733523390978573
1683691949983492000,7.4254921875,0.252725053268671,7.801187545189261,-2.792736575590074
1683691949993463000,7.435463134765625,0.8288600767515599,7.655482604703307,-3.8481381936922667
1683691950003434000,7.44543408203125,1.3581753352619708,6.324122357261181,-4.2130473183780905
1683691950013406000,7.455406005859375,1.705223370695114,4.236967707669734,-3.670856211681664
1683691950023377000,7.465376953125,1.828849896494299,2.0888503475934264,-2.6503566878736016
1683691950033348000,7.47534814453125,1.7144925726912914,0.27586685940325256,-1.5661080377325414
1683691950043320000,7.485320068359375,1.3530826882980762,-1.1015753402560948,-0.5494169662967324
1683691950053291000,7.495291015625,0.9328010743498801,-1.9433067351490259,0.5322685553580522
1683691950063262000,7.505261962890625,0.6023426469288766,-2.2721575812429187,1.774598227955401
1683691950073234200,7.515234130859375,0.16238938717469573,-2.3934289222180842,2.965915213935077
1683691950083204900,7.525204833984375,-0.3184511787630617,-2.7903368209719654,3.825878431089222
1683691950093176000,7.535176025390625,-0.7516052798964082,-3.6237206587582826,4.289701226730644
1683691950103148000,7.54514794921875,-0.9534932953752576,-4.716383793762326,4.365629451157153
1683691950113119200,7.555119140625,-0.8350665301762521,-5.871862573641538,4.25932888482064
1683691950123090000,7.56508984375,-0.6168062026977539,-7.0500003445744515,3.947501361981034
1683691950133062100,7.575062255859375,-0.5069817000187933,-8.15610046877861,3.3583822076320646
1683691950143033000,7.585033203125,-0.6606105653718114,-9.137474727639555,2.5344936356827614
1683691950153004000,7.595004150390625,-1.0171567892514168,-9.90053473687768,1.5469614387139676
1683691950162976000,7.60497607421875,-1.301274321258068,-10.48055113183856,0.49775955203473565
1683691950172947000,7.614947021484375,-1.2988380340218544,-10.750426057350635,-0.36427901008874175
1683691950182918100,7.624918212890625,-1.2773219293929636,-10.649711766713857,-0.7284533907592297
1683691950192889900,7.634889892578125,-1.3967851980328558,-10.03567269064188,-0.3354720177993178
1683691950202861000,7.644861083984375,-1.5803345698751508,-9.0547368231982,0.6743892076164484
1683691950212832000,7.65483203125,-1.7248961855448781,-8.258774076789617,1.7408344900414348
1683691950222804000,7.664803955078125,-1.9397418822742998,-7.892580465251207,2.619113408347964
1683691950232775000,7.67477490234375,-0.9803777951695024,-7.96738056243062,3.5151623766228552
1683691950242746000,7.68474609375,1.8172398304603994,-7.964125360026955,4.386585729946196
1683691950252718000,7.694718017578125,4.908215110129118,-7.081854449474811,4.694801784290373
1683691950262689000,7.70468896484375,6.152180567234754,-5.3744250931680195,4.289745942655205
1683691950272660000,7.714659912109375,4.8326527964055535,-3.217672591215372,3.591020750683546
1683691950282632200,7.724632080078125,2.4274539414167404,-0.17198679821193216,2.487479078790545
1683691950292603100,7.73460302734375,-0.8651438346624374,4.647862630721926,1.04910339474082
1683691950302573800,7.74457373046875,-4.950721541947126,10.03703462664485,-0.22793314183950422
1683691950312546000,7.754546142578125,-6.090144090038538,14.29170750235319,-2.1891800228267906
1683691950322517000,7.76451708984375,-1.4868109213948248,16.96488041766882,-5.25618449819088
1683691950332488000,7.774488037109375,4.53550875569582,18.497392767530677,-8.916815960717202
1683691950342460000,7.7844599609375,2.3331506868660448,18.41393005594611,-11.741018810933827
1683691950352431000,7.79443115234375,-0.4572667981266975,18.289084363615512,-13.217677756148577
1683691950362402000,7.804402099609375,1.1417758332192898,14.733538246417044,-11.532109518516062
1683691950372374000,7.8143740234375,2.249412080949545,8.432876259720326,-5.41629322708249
1683691950382345000,7.824344970703125,2.745645446330309,5.452319064709544,-1.477418531410396
1683691950392316200,7.834316162109375,2.630458393704891,4.027884812250734,0.5334563038378953
1683691950402287900,7.844287841796875,1.6523790847361086,3.3637031103938817,2.0636162453547118
1683691950412259000,7.854259033203125,0.4958545221310109,3.7293694831877944,3.0819431012988088
1683691950422230000,7.86422998046875,-0.24988318090625106,4.773222117793559,3.5274291529998183
1683691950432202000,7.874201904296875,-0.33733459680080413,5.451106181788444,2.9166169300198552
1683691950442173000,7.8841728515625,-0.028028920589014888,4.572429496335983,0.35221725476458665
1683691950452144000,7.89414404296875,0.33693127669692036,2.9556489637255665,-2.766294266605377
1683691950462116000,7.9041162109375,0.6059539692938327,0.9224176275014877,-4.793291676875949
1683691950472087000,7.914087158203125,0.6497498564004898,-1.5156091458559036,-5.745119523257017
1683691950482058000,7.92405810546875,-0.027383681488037107,-3.670361998423934,-5.5548693386018275
1683691950492030200,7.9340302734375,-0.6277883460916578,-5.037129659333825,-4.3990904067322605
1683691950502001200,7.944001220703125,0.022731983224675057,-5.700412366524338,-2.508029699388146
1683691950511971800,7.953971923828125,1.0743581744413822,-5.971304944646358,-0.089069883941859
1683691950521944000,7.963944091796875,0.1572222136698663,-5.831048332694173,2.3340615181006488
1683691950531915000,7.9739150390625,-2.980117050027847,-5.544404643210768,4.117758559921383
1683691950541886200,7.98388623046875,-5.517530080288648,-5.627299199518561,4.94868156055212
1683691950551858000,7.99385791015625,-5.736130745637417,-6.292812442240119,5.028231482607126
1683691950561829000,8.0038291015625,-4.113972611641883,-7.399450911104679,4.62885047173798
1683691950571800000,8.013800048828125,-2.5211171444982288,-8.533783442580699,4.044658836919069
1683691950581772000,8.02377197265625,-2.285236258524656,-9.032563569834828,3.718431909587979
1683691950591743000,8.033742919921876,-2.4165786193981766,-9.417565926739574,3.7618130784139034
1683691950601714200,8.043714111328125,-2.341507304061949,-9.982287137413024,4.1807086448311805
1683691950611686000,8.053685791015624,-2.6246812716081735,-10.78288806501627,4.763603225576877
1683691950621657000,8.063656982421875,-3.020975422377884,-11.58795473985672,5.436850861942768
1683691950631628000,8.0736279296875,-2.8829084294244645,-12.485453030157089,5.940852523237466
1683691950641600300,8.083600341796876,-2.5380244401574132,-13.243486735665797,5.854601642239094
1683691950651571000,8.093571044921875,-2.184290789480507,-13.30374275918603,5.01858219525218
1683691950661542100,8.103542236328124,-1.8279596696563063,-12.505728925466537,3.2924633360445497
1683691950671514000,8.11351416015625,-1.843044718324393,-11.386334435403347,1.3718541703939438
1683691950681485000,8.123485107421875,-2.598637022030353,-10.622315225744247,-0.08192249640524386
1683691950691456000,8.1334560546875,-3.139395757836103,-10.202920769894122,-1.3784803105354309
1683691950701428200,8.14342822265625,-1.1704653366088866,-9.784108497846127,-2.896494763967395
1683691950711399200,8.153399169921874,4.637457556563615,-8.770726404827833,-4.864039283794164
1683691950721369900,8.163369873046875,9.555092821466923,-5.782715386679768,-6.541749209141731
1683691950731342000,8.173342041015625,6.41866058961153,-1.1960901917308568,-6.560156387969851
1683691950741313000,8.18331298828125,4.5152807911813255,4.607429498046637,-5.693076032286882
1683691950751284200,8.1932841796875,0.7395370948314667,11.31749178532362,-5.763550082960725
1683691950761256000,8.203255859375,-6.97982264649868,18.285197293049094,-6.201093943485617
1683691950771227100,8.21322705078125,0.7261378072932362,25.593487339282035,-6.300534560924768
1683691950781198000,8.223197998046874,5.848618476176261,22.956779237532615,-5.045092016515135
1683691950791170000,8.233170166015626,4.270629446513951,13.246626787257194,0.2456850716292858
1683691950801141000,8.24314111328125,2.63895588067621,6.001560966700315,3.054870385456085
1683691950811112200,8.2531123046875,1.8948995548546312,1.7172130836963653,3.0439503475129603
1683691950821084000,8.263083984375,1.951159786736965,-0.9859732770889997,0.3073386869877577
1683691950831055000,8.27305517578125,2.85512844209522,0.2604243755996227,-4.251141778972745
1683691950841026000,8.283026123046875,3.4393700535356997,6.340511182004213,-8.406431904909015
1683691950850998300,8.292998291015625,2.9464976890206334,13.194984278303384,-11.412488282835483
1683691950860969000,8.302968994140626,0.35158275625333185,17.175967638647556,-13.745274228042364
1683691950870940000,8.31293994140625,-0.8682464768528938,18.085414725416896,-14.818933387368917
1683691950880912100,8.322912109375,0.2363971649326384,15.762663852012157,-13.07785193682909
1683691950890883000,8.332883056640625,1.984582748389244,11.07677398071289,-7.855541651189327
1683691950900854000,8.34285400390625,3.221879979777336,7.662299883502722,-3.1462562912553547
1683691950910826000,8.352825927734376,3.4490532431602476,5.780153427237272,-0.14261340421140192
1683691950920797200,8.362797119140625,2.8640473693490027,5.5684542118400335,0.9918284328579902
1683691950930768100,8.37276806640625,1.6035329285025595,6.999947150638699,-0.26147300786972044
1683691950940740000,8.382739990234375,0.8884614357553422,8.74717543337047,-3.2816414977788924
1683691950950711000,8.3927109375,0.13212050563916564,9.30675577402413,-6.134989193937182
1683691950960682200,8.40268212890625,-0.29855507655143737,8.642647721925377,-8.096374606612324
1683691950970653200,8.412653076171875,0.3693311058465391,7.352568163898587,-9.22014132041037
1683691950980625200,8.422625244140624,0.8794809145074337,5.30659366595745,-9.321707259440421
1683691950990596000,8.43259619140625,1.361234576702118,3.0065941380649805,-8.343526243662833
1683691951000567000,8.442567138671874,1.1960698795951903,0.91094346280694,-6.943683996146917
1683691951010539000,8.4525390625,0.7071662725806236,-0.7677642414063215,-5.3050271472930906
1683691951020510000,8.462510009765625,0.5187725294470786,-2.1034201402157544,-3.531747308459878
1683691951030481200,8.472481201171876,0.3598433657288551,-3.2350925125718115,-1.7867551142171023
1683691951040452900,8.482452880859375,0.44570963132381436,-4.215710400107502,-0.2469225044697523
1683691951050424000,8.492424072265624,0.4755608719691634,-5.228830627319216,1.157622952301055
1683691951060395000,8.50239501953125,-0.09526756953820585,-6.268906665995717,2.472382924206555
1683691951070367000,8.512366943359375,-0.866814544353634,-7.381165312829613,3.9041777685612438
1683691951080338000,8.522337890625,-1.208404314380884,-8.500880120888352,5.370292523407936
1683691951090309000,8.53230908203125,-0.8226330189302563,-9.581233809417485,6.8770017389714715
1683691951100281000,8.542281005859374,-0.3171627463877201,-10.50393551455736,8.099342224246262
1683691951110252000,8.552251953125,-0.31682007042989135,-11.239026735895871,8.837826595154404
1683691951120223000,8.562222900390625,-1.2259354410268366,-11.617000801599024,8.925745117104054
1683691951130195200,8.5721953125,-3.3389714047193526,-11.63993393341899,8.16438080586791
1683691951140166100,8.582166259765625,-5.7998038841247554,-11.42297460553646,6.301238909801841
1683691951150137000,8.59213720703125,-7.3475909600079055,-10.990278769564627,4.1129993826955555
1683691951160109000,8.602109130859375,-7.494080328869819,-10.839296765458583,2.2493784709408877
1683691951170080300,8.612080322265625,-5.536668496000766,-11.145993062889575,0.35153672515451906
1683691951180051200,8.62205126953125,-1.770638676674664,-11.406537849998474,-1.7794763553857802
1683691951190023200,8.632023193359375,2.0563618903122842,-11.20736084704399,-3.539437862962484
1683691951199994000,8.641994140625,2.6748949168026446,-10.47329604614377,-3.829319803714752
1683691951209965000,8.651965087890625,-0.07420154676437378,-9.442682247817515,-1.5056076840624213
1683691951219937000,8.66193701171875,-2.846187887531519,-8.897261365419626,1.0146616114348173
1683691951229908000,8.671907958984375,-4.063193733780086,-8.557948746544122,2.2917104229748246
1683691951239879200,8.681879150390625,-3.867526492512226,-8.346424303191899,3.0871155355006454
1683691951249851000,8.691850830078126,-3.039889089423418,-8.408071488809584,3.390664182555675
1683691951259822000,8.701822021484375,-2.2609015893436966,-8.619037713757157,2.9518413881361485
1683691951269793000,8.71179296875,-1.5957237160563469,-8.711560514631866,1.9772277094513178
1683691951279765200,8.72176513671875,-1.2704945675909518,-8.599101425665616,1.1315768030270934
1683691951289736000,8.73173583984375,-2.23220244134292,-8.444381988596916,0.5168947528764605
1683691951299707100,8.74170703125,-2.3463830934047696,-8.3356615016371,0.014345043955743313
1683691951309679000,8.75167919921875,-1.100827809824422,-8.038501094314455,-0.69667293561697
1683691951319650000,8.761650146484374,0.284967280703783,-7.68867351116538,-1.637104066453874
1683691951329621000,8.77162109375,1.521959537795931,-7.978435040408373,-2.6425369540333747
1683691951339593200,8.78159326171875,2.6865327476263046,-8.89623026880622,-3.577870761731267
1683691951349564200,8.791564208984376,1.1359176087103784,-9.620379240369797,-3.5980411508396264
1683691951359535000,8.80153515625,-1.4796573963783681,-8.44845844425559,-1.6234946432963013
1683691951369507000,8.811507080078124,-1.1311037786878644,-4.566435224357247,2.018395293880999
1683691951379478000,8.82147802734375,4.753729481816292,-0.09700608376860619,4.739497542846203
1683691951389449200,8.83144921875,15.824080736005305,5.473921240186691,5.894665357080101
1683691951399421000,8.8414208984375,16.27228861388564,10.805475159877538,6.38106238810122
1683691951409392000,8.85139208984375,-9.802418061518669,10.531885013234614,5.9539212636470795
1683691951419363000,8.861363037109374,-10.8184901242733,13.688150072807073,5.167887790578604
1683691951429334300,8.871334228515625,0.7594822968818247,23.64685876623392,2.149391033273935
1683691951439306000,8.881305908203124,1.5086018974423407,25.0465104596138,-4.271931469023228
1683691951449277200,8.891277099609376,3.5473896987497806,20.422493399381636,-10.042324549746512
1683691951459248000,8.901248046875,1.3082169800028205,15.663856271779537,-14.655822554051875
1683691951469220000,8.91122021484375,-2.08760809244737,12.403692446315288,-18.642829996991157
1683691951479191000,8.92119091796875,-1.8211387375950812,10.559850878524779,-21.712039873445033
1683691951489162000,8.931161865234374,-1.17265963178277,9.139402480831741,-22.07031204433441
1683691951499134000,8.941134033203125,0.10913242876157164,9.276226780247688,-17.3361593696475
1683691951509105000,8.95110498046875,-0.10545710124969482,10.351496881902218,-11.095532457196711
1683691951519076000,8.961076171875,-0.5401591624774038,10.475878463852405,-6.503419770747422
1683691951529048000,8.971048095703125,0.10722805644497274,10.124463903772831,-2.6743554030984638
1683691951539019000,8.98101904296875,1.2183540459871292,9.214990513518453,0.43457858097851276
1683691951548990000,8.990989990234375,1.849387365349382,7.874125940150022,2.5608815841317174
1683691951558962200,9.000962158203125,1.8221840088643133,6.651126114183664,4.017020303887128
1683691951568933000,9.01093310546875,1.221641250964254,5.737972574111819,4.893037999263406
1683691951578904000,9.020904052734375,0.3924795609176159,5.132482715198397,5.123903102901577
1683691951588876000,9.0308759765625,-0.5159915204264224,4.602769689542055,4.59373356564939
1683691951598847200,9.04084716796875,-1.0197816578622907,3.7141543783992526,3.1717794395685193
1683691951608818200,9.050818115234375,-0.9958396412607282,2.3514093971341845,1.0257616821199655
1683691951618790100,9.0607900390625,-0.6908068200625479,0.8143605728864669,-1.0693097319453955
1683691951628761000,9.070760986328125,-0.10220379854217171,-0.8686509660005569,-2.6887331802800296
1683691951638732000,9.08073193359375,0.3539512389503419,-2.5762346360862254,-3.590349719554186
1683691951648704000,9.0907041015625,0.30617241968736053,-4.135339224797487,-3.7317961258128283
1683691951658675000,9.100675048828125,-0.08264679209180176,-5.447438891452551,-3.0825717545911666
1683691951668650500,9.110650390625,-0.7362486477453262,-6.420322385343909,-1.872411828714609
1683691951678622200,9.120622314453126,-1.127652761451155,-7.082856319993734,-0.4300584732055664
1683691951688593400,9.130593505859375,-1.0640053419269622,-7.698133413428068,1.0030129669561982
1683691951698564400,9.140564453125,-1.1001309866666793,-8.442578154045343,2.351037641212344
1683691951708536300,9.150536376953125,-1.5197311942219733,-9.21864962054789,3.516237604638934
1683691951718507300,9.16050732421875,-2.1730945649445057,-9.867599266481399,4.508692937223613
1683691951728478500,9.170478515625,-2.632580208164453,-10.37687448426485,5.305079754263162
1683691951738449400,9.180449462890625,-2.679914790791273,-10.663619880557059,5.7914691864997145
1683691951748421400,9.19042138671875,-2.3644695158459244,-11.036156723642348,5.876370406454801
1683691951758392300,9.200392333984375,-1.9408654794767497,-11.518402480202912,5.640511732313037
1683691951768363300,9.21036328125,-1.655007241282612,-11.89517710698843,5.199326884937286
1683691951778335200,9.220335205078126,-1.5740017135918138,-11.892160974037646,4.5099540432006116
1683691951788306200,9.23030615234375,-1.5489865148007869,-10.884349374628066,3.5549893600985407
1683691951798277400,9.24027734375,-1.4376162439845501,-9.312937677529455,3.1107056699246165
1683691951808249300,9.250249267578125,-1.378625271964073,-8.434702306103706,3.0383140951916574
1683691951818220300,9.26022021484375,-1.432829301968962,-8.241677980560064,3.0977438970208167
1683691951828191200,9.270191162109375,-1.4726457640506325,-8.544241123709082,3.2012595088139175
1683691951838163500,9.28016357421875,-1.1995125673949718,-8.887571746054292,3.0700770146772265
1683691951848134400,9.290134521484376,-0.2886651123084128,-8.740224883580208,2.720886560387909
1683691951858105300,9.300105224609375,1.2582814210973678,-7.674944845542311,2.1856515564396974
1683691951868077300,9.310077392578124,3.7071255026757717,-5.7280947386980055,1.5365850061282516
1683691951878048500,9.320048583984375,6.740996354722976,-2.9121576125234365,0.635383185134828
1683691951888019200,9.330019287109375,6.209849496871232,0.34544892967343327,-0.6486661528170108
1683691951897991400,9.339991455078126,2.4794986014306546,3.5231010606676336,-2.2158201924711465
1683691951907962400,9.34996240234375,3.126954793936014,7.61715141274333,-4.008705772267282
1683691951917933300,9.359933349609374,0.5981015022277831,10.373248110461235,-5.1671699976980685
1683691951927905300,9.3699052734375,-2.939385226666927,11.67920795918703,-6.27358108754754
1683691951937876200,9.379876220703125,-3.250304110229015,12.644801880592107,-7.466442964881658
1683691951947847400,9.389847412109376,0.7992470287762582,14.038946208727358,-8.624007903385161
1683691951957819100,9.399819091796875,3.0069442666769026,15.50517260725498,-9.200002203223109
1683691951967790300,9.409790283203124,1.269364102256298,16.866753220915793,-9.913125338381528
1683691951977761300,9.41976123046875,1.4896039131142198,17.83169247780442,-11.356617342531681
1683691951987732500,9.429732421875,2.059067203748226,16.31062974271774,-12.872597075265645
1683691951997704200,9.4397041015625,1.2525018147826195,11.83176349622011,-12.75525898208618
1683691952007675400,9.44967529296875,0.06121595459356904,9.22825506876111,-10.009220737046002
1683691952017646300,9.459646240234376,0.11004435597471893,7.858730802619457,-6.980699429333209
1683691952027618300,9.469618408203125,1.9949848999381063,7.110053538998961,-4.5909044797033065
1683691952037589200,9.47958935546875,3.2769396036982537,6.465945487877726,-2.3529221397846936
1683691952047560200,9.489560302734375,3.0748867530465125,5.586556270241737,-0.06101765554249286
1683691952057532400,9.499532470703125,2.1318847488082944,4.490904474815726,2.000673759229481
1683691952067503000,9.509503173828126,1.1085634455777704,3.227748579549789,3.482904074835777
1683691952077474300,9.519474365234375,0.5718750279508531,2.1217700358986855,4.303426969744264
1683691952087446300,9.5294462890625,0.5020668207745999,1.262249301815033,4.2691047211647035
1683691952097417500,9.53941748046875,0.49718489395193755,0.5346814617186785,3.4059012069150802
1683691952107388200,9.54938818359375,0.22390695506334304,-0.12166940038204192,2.202171021825075
1683691952117360400,9.5593603515625,-0.2482956194538623,-0.8114175051718949,1.1539952633231878
1683691952127331300,9.569331298828125,-0.3940601081073284,-1.780902004274726,0.539152761913836
1683691952137302300,9.57930224609375,-1.2793849994026123,-3.070513944789767,0.4473766877532005
1683691952147274200,9.589274169921875,-2.9058406844615936,-4.460115368798375,0.6557309766367078
1683691952157245400,9.599245361328125,-3.504545413279533,-6.032674482366442,0.8314546232894062
1683691952167216400,9.60921630859375,-3.11500716651082,-8.013909673893451,0.8058762376576661
1683691952177188400,9.619188232421875,-2.6108979531884193,-10.158609334480762,0.5976081657528877
1683691952187159300,9.6291591796875,-2.6746993942305446,-11.991098318129778,0.2561433372795582
1683691952197130200,9.639130126953125,-3.059786214548349,-13.367924431717395,-0.18536621200591324
1683691952207101400,9.649101318359374,-3.2853006048083304,-14.296396536952257,-0.4566527578815818
1683691952217073200,9.6590732421875,-3.310703926134109,-14.948371083664894,-0.45294922718852754
1683691952227044400,9.66904443359375,-3.2177602694988248,-15.350163247328997,-0.11110299818217753
1683691952237015300,9.679015380859376,-2.864198175996542,-15.427550438392162,0.5407011603996157
1683691952246987300,9.6889873046875,-1.8723793877497314,-14.711027139401436,1.625116837670654
1683691952256958200,9.698958251953124,-0.7899731506049632,-12.463047137081622,2.8212472152814265
1683691952266929400,9.708929443359375,-0.21197803233861923,-10.145890138161182,3.6241444371283054
1683691952276901000,9.718901123046875,-0.21113383659943938,-8.612813724675775,4.315656628981232
1683691952286872300,9.728872314453126,-0.5315899254441261,-7.466631180930137,4.801927987796068
1683691952296843300,9.73884326171875,-0.9536943709053098,-6.568169598555564,5.028305132365227
1683691952306815500,9.7488154296875,-1.420688636189699,-5.978614975398779,5.029664145758748
1683691952316786200,9.7587861328125,-1.950593823417276,-5.729495837667584,4.691313942174613
1683691952326757400,9.76875732421875,-2.0601427240252494,-5.629121738770603,4.204927724808455
1683691952336729300,9.778729248046876,-2.444158554110676,-6.128959266123175,6.9515072371184825
1683691952346700500,9.788700439453125,-0.8722517669714986,-10.787594635272026,15.934965707522629
1683691952356671200,9.798671142578126,0.4836182139575481,-6.352798416647315,2.710314312969148
1683691952366643500,9.8086435546875,5.100732070672512,-0.3939730143457651,-4.666928857980668
1683691952376614400,9.818614501953125,13.478071736609936,6.329729091227054,-9.905506680071353
1683691952386585300,9.82858544921875,10.03992333382368,10.252100103604793,-11.778816334408521
1683691952396556300,9.838556396484375,3.8405850018337366,12.269029124325513,-9.069074560630321
1683691952406528300,9.8485283203125,-1.3148236847914754,11.145974358189106,-3.4634552780002354
1683691952416499500,9.85849951171875,-4.745725623580813,8.057334974122046,2.442165772858262
1683691952426470400,9.868470458984374,-6.567503243601322,4.955739662370085,6.487338404518366
1683691952436442400,9.8784423828125,-2.8651088611006736,2.5680109976202248,7.9720801184237
1683691952446413300,9.888413330078125,3.5879844517275687,2.0647744754791257,5.168514398044348
1683691952456384500,9.898384521484376,5.709475378423929,3.1655595421403646,-1.2938567384779454
1683691952466356200,9.908356201171875,1.831414486285299,6.074244510117173,-5.5481508440017695
1683691952476327400,9.918327392578124,-2.039534674151987,10.582439142429829,-8.757268957361578
1683691952486298400,9.92829833984375,-0.745736680123955,15.526495965790748,-13.156569499713182
1683691952496270300,9.938270263671875,0.3599564707145095,18.2977960778594,-17.699612742567062
1683691952506241300,9.9482412109375,-1.9268905840076505,16.017152992343902,-21.355465154123305
1683691952516212200,9.958212158203125,0.0643440234862268,13.128976559388637,-20.776005224001405
1683691952526183400,9.968183349609374,3.562293837893009,10.065686720633506,-12.524980738425255
1683691952536155100,9.978155029296875,4.779366611897945,7.7682707794934505,-5.210927890881896
1683691952546126300,9.988126220703125,5.206060577106475,6.728919547960162,-0.7936427790284156
1683691952556097300,9.99809716796875,5.362158316791057,7.4446017199516294,2.2668892854511737
1683691952566069200,10.0080693359375,4.387141902524233,9.427019983783364,3.241971458430588
1683691952576040200,10.018040283203124,1.8890237946890294,11.406846477556227,2.177304876115918
1683691952586011400,10.028011474609375,-0.10411043588109314,12.314569224750995,-0.025362697054445743
1683691952595983400,10.0379833984375,-0.3420797455012798,12.293286782747506,-2.3672885187894104
1683691952605954300,10.047954345703126,-0.0023100305080413818,11.812614559113978,-4.332302351094782
1683691952615925200,10.05792529296875,-0.1408404762547463,10.270897158533334,-6.084390056556463
1683691952625897500,10.0678974609375,-0.7616331182401627,6.5334010675132275,-7.687039187961816
1683691952635868400,10.077868408203125,-0.9989280357301235,2.910235704550147,-8.70709652096033
1683691952645839000,10.087839111328124,-0.36184228446111083,-0.2133347076445818,-8.670217281374335
1683691952655811300,10.097811279296875,0.39788982246331867,-3.1446874345034357,-7.548866981068253
1683691952665779200,10.107779296875,0.24357465534657238,-5.421662060639262,-5.807597314479946
1683691952675750100,10.117750244140625,-0.06319616862535476,-6.7632111091405145,-3.5698090358287096
1683691952685720800,10.127720947265624,-0.5558288791656494,-7.479277896535396,-0.9147174283877014
1683691952695693000,10.137693115234375,-0.9656722473382949,-8.052230344459414,1.71720431586802
1683691952705664000,10.1476640625,-1.1524866123259068,-8.660511879917978,3.9945699871480462
1683691952715635000,10.157635009765626,-1.1247872890174389,-9.398994497260452,5.806412488609552
1683691952725607000,10.16760693359375,-1.2603856999002396,-10.37405825780034,6.964802772021293
1683691952735578000,10.177578125,-1.674395832363516,-11.358907499295473,7.596136097243428
1683691952745549000,10.187549072265625,-2.3917184650383887,-12.08939970240593,7.625087466439604
1683691952755521000,10.19752099609375,-3.0941505487039684,-12.695033353704213,6.8501452962279314
1683691952765492000,10.207491943359376,-3.2884386105731127,-13.144371696919203,5.242109211087227
1683691952775463200,10.217463134765625,-2.6478233700037,-13.201084348744153,3.0585809304118157
1683691952785435000,10.227434814453124,-1.1167419297277927,-12.83497023218274,0.974758347852528
1683691952795406000,10.237406005859375,0.7706207998812198,-12.162399472165108,-0.5052162977814674
1683691952805377000,10.247376953125,1.212166297262907,-11.014340028631686,-1.0492983327910304
1683691952815349000,10.257348876953126,-0.1961247757770121,-9.371308617955446,-0.3910574191600084
1683691952825320000,10.26731982421875,-1.8719160080216823,-7.756551700127124,0.7149900980740785
1683691952835291100,10.277291015625,-2.8040613949418067,-6.677083562260866,1.6901973587378858
1683691952845262000,10.287261962890625,-2.9295035918608305,-6.362320278230309,2.457251406048238
1683691952855234000,10.297234130859374,-2.5189807169914245,-6.797861566761136,3.066750208342075
1683691952865205000,10.307205078125,-1.817205051407963,-7.6183414993107315,3.5098891123950477
1683691952875176000,10.317176025390625,-1.285581223694235,-8.462436700725554,3.729560914106667
1683691952885148200,10.327148193359376,-1.0799699499085544,-9.213847188702225,3.7809202222049234
1683691952895118800,10.337118896484375,-0.8958454085268079,-9.81310312166214,3.724161393150687
1683691952905090000,10.347090087890624,-0.5544903240382671,-10.136253710287809,3.4920144330084324
1683691952915062000,10.35706201171875,-0.10731120468378066,-10.257096596717833,3.069277973254025
1683691952925033200,10.367033203125,0.08208455509915948,-10.215307957780361,2.519999538645148
1683691952935004000,10.37700390625,-0.18530279138088226,-10.138244591844082,1.9518159125581382
1683691952944976100,10.38697607421875,-0.910472484294325,-10.06974330254793,1.325965402661264
1683691952954947000,10.396947021484374,-2.0753743415571746,-9.920185193765162,0.5256127507306635
1683691952964918000,10.40691796875,-2.9799393553733826,-9.526516130802035,-0.45254532256275415
1683691952974889000,10.416888916015624,-3.6232898661255835,-8.491578039535879,-1.1904533548876644
1683691952984861200,10.426861083984376,-4.194169014906883,-6.67245064176321,-0.9466022206872701
1683691952994832100,10.43683203125,-3.7922126005917787,-3.859844705837965,-0.23006050925701854
1683691953004802800,10.446802734375,-3.3784543970629572,-0.6414712728768587,-0.517479567027092
1683691953014775000,10.456775146484375,3.6368987047612666,4.382093971484899,-1.8481173454135655
1683691953024746000,10.46674609375,16.755350363004208,12.43239130205512,-1.2573852029100059
1683691953034717200,10.47671728515625,13.31313953308463,18.82926909892559,0.35778467963337895
1683691953044689000,10.48668896484375,-5.602711286228895,19.166284546774623,0.2911573675155639
1683691953054660000,10.49666015625,-4.861631053608655,24.76554949194193,0.19483458983600138
1683691953064631000,10.506631103515625,-3.704724286752939,28.814184246754646,-1.2370178299248218
1683691953074602200,10.516602294921874,-4.026425261092186,23.843269811606405,-5.202368152329325
1683691953084574000,10.526573974609375,0.3401658747039735,16.683105795526505,-8.860285679721832
1683691953094545200,10.536545166015625,3.3809400763988493,10.909196231114864,-11.988866613554954
1683691953104516000,10.54651611328125,1.9794541533291339,7.231739305993914,-14.494188223028182
1683691953114488000,10.556488037109375,-0.04247852089777589,6.081612993058562,-14.914485180675982
1683691953124459000,10.566458984375,0.5441989393875003,6.240994576719403,-13.489930516707897
1683691953134430000,10.576429931640625,0.9254992269039154,6.620331747469305,-11.396888562643527
1683691953144402000,10.58640185546875,0.5796516533017159,6.278453662019968,-8.964389028275013
1683691953154372900,10.596372802734376,0.7187025427259505,5.523244950804114,-6.274452025163173
1683691953164344000,10.606343994140625,0.8853472492575645,4.551816331896186,-3.734374744129181
1683691953174316000,10.61631591796875,1.2324595820985733,3.6132191384881733,-1.4710656552523373
1683691953184287000,10.626286865234375,1.5621217445753515,2.7949481141597032,0.4446177444338798
1683691953194258000,10.6362578125,1.5802945301257072,2.1258301249444482,1.9845178664594887
1683691953204229000,10.64622900390625,1.3060849364101885,1.6788807226926088,3.0135774210810657
1683691953214201000,10.656201171875,0.8506897773742675,1.3947697665572165,3.4419060017541048
1683691953224172000,10.666172119140626,0.4515924057520926,0.9491524896919726,3.398265889731049
1683691953234143000,10.67614306640625,0.2076971401490271,0.1034539447337389,2.9786522381722924
1683691953244115200,10.686115234375,0.3617873394034803,-1.2198925076007843,2.508539110215008
1683691953254086100,10.696086181640625,0.7249402680717408,-2.939376458838582,2.1035534112066028
1683691953264056800,10.706056884765625,1.1145429583787918,-4.803275895273686,1.7841081068396567
1683691953274029000,10.716029052734376,1.401113144234568,-6.485624586337805,1.5464733629360794
1683691953284000000,10.726,1.430722538948059,-7.819532764697074,1.2710007635474205
1683691953293971000,10.735970947265624,1.2591267858803272,-8.937283579206467,0.8694768954306841
1683691953303942000,10.74594189453125,1.384843415826559,-10.023011946511268,0.3264239112079143
1683691953313914000,10.7559140625,1.6928573717273772,-11.243906324630975,-0.16620733802765608
1683691953323885000,10.765885009765626,2.196234617513418,-12.278221315562725,-0.39236952467188235
1683691953333856000,10.77585595703125,2.380846504020691,-12.326341495609283,-0.08584215406700968
1683691953343828000,10.785827880859374,1.708183389544487,-10.954743345803022,0.7073477666273713
1683691953353799200,10.795799072265625,-0.6268925662957131,-9.001492724266647,1.4126770330391822
1683691953363770000,10.80577001953125,-4.070236345767975,-7.151080545914173,1.8721799196548758
1683691953373742000,10.8157421875,-6.309979265618324,-5.075017783701419,2.4111080790325996
1683691953383713000,10.825713134765625,-6.342272930979728,-2.3868828615754842,2.6107810488104817
1683691953393684000,10.83568408203125,-4.4453544375181195,1.7220330511987207,2.57175018414855
1683691953403656000,10.845656005859375,-2.759802566498518,7.2474004009842865,1.9681981614299118
1683691953413627100,10.855627197265624,-0.283808685253188,12.7071060688138,0.27361104330047964
1683691953423598000,10.86559814453125,2.4487878213465213,15.929972721540928,-2.172431278730184
1683691953433569000,10.875569091796875,0.7594518286783247,14.593071791106462,-4.820634149570763
1683691953443541000,10.885541015625,-1.9912673407196997,7.772180646413564,-5.809578259164095
1683691953453512000,10.895511962890625,-0.051753641178086396,1.511688173019886,-3.7142704059943554
1683691953463483100,10.905483154296874,3.9340871691346164,-2.129059023863077,-1.4056111863061784
1683691953473454800,10.915454833984375,5.547023885798454,-4.283301004299521,0.14853417256250975
1683691953483426000,10.925426025390625,3.0639807436287403,-4.775018938082456,0.8093079656720161
1683691953493397000,10.93539697265625,-0.5074458103992044,-4.175047550329566,0.4767167640060186
1683691953503369200,10.945369140625,-2.049822405540943,-3.2935055385738607,-0.531874441473931
1683691953513340000,10.95533984375,-1.3955904352903366,-2.4442671290516853,-1.6092676727622746
1683691953523311000,10.96531103515625,-0.3435175962846726,-1.2670786216676235,-2.104653481402993
1683691953533282000,10.975281982421874,0.10501176863498986,0.31282851657569405,-1.7282082327023147
1683691953543254000,10.98525390625,-0.06425649133324622,1.5224328543961048,-0.9147419783070683
1683691953553225000,10.995224853515625,-0.6378408804852516,1.7741823406308888,-0.2098379515700042
1683691953563196000,11.00519580078125,-1.333923375928402,0.8996808950364589,0.027826602949947116
1683691953573168000,11.015168212890625,-1.776800414174795,-0.48382221209704873,-0.2750993821620941
1683691953583138800,11.025138916015624,-1.7689444399774072,-1.6676427048414946,-0.8646034441754221
1683691953593110000,11.035110107421875,-1.33480366589427,-2.3056576997846365,-1.3205626668348909
1683691953603082000,11.04508203125,-0.6802899560928344,-2.086870571953058,-1.4212030154526232
1683691953613053200,11.05505322265625,-0.30654665982723234,-0.8405243571907282,-1.0153533930912613
1683691953623023900,11.06502392578125,-0.1646049443323165,0.6866922243505716,-0.5100691446401179
1683691953632995000,11.0749951171875,0.3369055577337742,1.815683979320526,-0.05094546660035848
1683691953642967000,11.084967041015625,0.952966933413595,2.377308393022418,0.5264617687754333
1683691953652938200,11.094938232421875,1.0256324297171084,2.2172043403059245,1.211232669674605
1683691953662908200,11.104908203125,0.7592482689302414,1.4206021269500255,1.6396325620181857
1683691953672880000,11.114880126953125,0.600603328980878,0.40602585571110245,1.7214236871287225
1683691953682851000,11.12485107421875,0.4004161991357803,-0.32884090922176834,1.6618910094469785
1683691953692822300,11.134822265625,-0.15190437964797018,-0.6353127502471209,1.4299498010098934
1683691953702794000,11.1447939453125,-0.7313760002076626,-0.6191103879868984,0.9959867215812206
1683691953712765200,11.15476513671875,-0.6516577358484268,-0.46557869939804075,0.3389809027031064
1683691953722736000,11.164736083984375,-0.185627785551548,-0.39600072078108783,-0.2702268076896667
1683691953732707300,11.174707275390626,0.06373509780764579,-0.42371056548357006,-0.6083043318122625
1683691953742679000,11.184678955078125,0.11796462757997214,-0.3951414736032486,-0.6080465576589107
1683691953752650200,11.194650146484374,-0.07238835986256599,-0.3269920664846897,-0.4084259025901556
1683691953762621200,11.20462109375,-0.37468079631142315,-0.21926175960600375,-0.004104804970324039
1683691953772593200,11.21459326171875,-0.63285943881087,-0.2253670907437801,0.4419502787902951
1683691953782564000,11.224564208984376,-0.5550806911468505,-0.3155991503328085,0.86743282238245
1683691953792535000,11.23453515625,-0.3292564312200993,-0.25827041243612764,1.0419669669896363
1683691953802507300,11.24450732421875,-0.12361702731847762,0.10432429782748222,0.922872093270719
1683691953812478000,11.25447802734375,0.045754035437107085,0.6690145288407802,0.6910284999892116
1683691953822449200,11.26444921875,0.16701660858392714,1.2884288682103155,0.5349097175166011
1683691953832421000,11.274421142578126,0.35842641160301864,1.8630483725637197,0.45869434671178455
1683691953842392300,11.284392333984375,0.693779406132549,2.3585861568957567,0.36532764235883947
1683691953852363000,11.294363037109376,1.130758764642477,2.760374813428521,0.24339608390927314
1683691953862334200,11.304334228515625,1.5898422568023205,3.0708120509535073,0.06206175776794552
1683691953872306200,11.31430615234375,1.861498951164633,3.1848435038030147,-0.2305360178142786
1683691953882277400,11.32427734375,1.8804887521862983,2.9879946515351534,-0.6003443127185106
1683691953892248000,11.334248046875,1.6207013593159616,2.45393745919466,-0.8758975761279463
1683691953902220300,11.34422021484375,1.1822504669487475,1.6547662721335887,-1.069202472178638
1683691953912191200,11.354191162109375,0.8157621102474629,0.7071592583179473,-1.0781421499595045
1683691953922162200,11.364162109375,0.5034790987253189,-0.41378596831858155,-0.9218734376221894
1683691953932133000,11.374133056640625,0.22621040970012543,-1.5585621523976325,-0.5595166277676821
1683691953942105000,11.38410498046875,-0.21040347649827598,-2.7127713507324454,-0.04397445854395628
1683691953952076300,11.394076171875,-0.9386487774647772,-3.735245097222924,0.4555784066483378
1683691953962047000,11.404046875,-1.7953486089088022,-4.642326039382815,0.9372747126325964
1683691953972019200,11.414019287109374,-2.5922563810825348,-5.511967185464501,1.488028772751987
1683691953981990100,11.423990234375,-3.373730583411455,-6.35651889847517,2.158951765562594
1683691953991961300,11.43396142578125,-3.848964415383339,-7.083619705581665,2.9933351357802747
1683691954001933000,11.44393310546875,-3.9707206172659992,-7.772345481586456,4.129918076531589
1683691954011904300,11.453904296875,-4.230769437551499,-8.476161859217285,5.307943327000737
1683691954021875200,11.463875244140626,-4.218022184181213,-9.02163067241013,6.225349848341941
1683691954031846100,11.47384619140625,-2.9424484136298297,-10.308123019599915,6.73354720776081
1683691954041818000,11.483818115234374,-0.21312369524240493,-12.675858697634935,6.873191240772605
1683691954051789000,11.4937890625,3.2580510710939765,-14.679362419593334,6.6283800293684
1683691954061760300,11.50376025390625,5.609201817291975,-14.9007231973052,5.465122432181238
1683691954071732000,11.51373193359375,7.5222309030771255,-12.631623250067234,3.080928663559258
1683691954081703200,11.523703125,8.709226518726348,-9.1575524700284,-0.04621989938318729
1683691954091674000,11.533674072265624,0.5536999043129385,-5.22761248370111,-2.0992700347989794
1683691954101646000,11.54364599609375,-5.869838958859443,-1.604635921308398,-1.7453963911294936
1683691954111617000,11.553616943359375,-0.8925684326827525,1.9213971011579036,-1.7666496070384978
1683691954121588200,11.563588134765626,-0.10674538749456405,5.272491489869356,-2.710955825743079
1683691954131559200,11.57355908203125,-0.6966670903980732,8.652291748583316,-4.9056759470403195
1683691954141531100,11.58353125,-0.516977754984796,12.33322950155735,-7.583727866569161
1683691954151502000,11.593502197265625,-1.9202282035090028,14.896538020575045,-10.416381149744987
1683691954161473000,11.60347314453125,-3.0693057380437847,13.896481857597827,-13.645737164491415
1683691954171445200,11.6134453125,-0.4852560442924499,10.048478396201133,-15.498625962090491
1683691954181416000,11.623416015625,1.348813486546278,6.582080635008215,-13.895273066329954
1683691954191387100,11.63338720703125,1.5157831872485577,5.619805628892779,-9.21937735030055
1683691954201358000,11.643358154296875,1.0485013371944427,5.204755924248695,-4.667840419867635
1683691954211330000,11.653330078125,1.6779171383574605,3.9352550438702103,-1.6545622739940882
1683691954221301000,11.663301025390625,2.5940730751156806,2.419598551741242,-0.025741174978017804
1683691954231272200,11.673272216796875,3.1378453135237097,1.2482821512609719,0.657875295189023
1683691954241244200,11.683244140625,2.875595183801651,0.8036088772475719,0.8140718190729618
1683691954251215000,11.693215087890625,2.691033566176891,1.9104718025177716,-0.2350017650514841
1683691954261186000,11.70318603515625,3.059274173372984,4.522906463754177,-2.32530815667212
1683691954271158300,11.713158203125,3.0678748284578323,8.386407354012132,-4.491383198243379
1683691954281129200,11.723129150390625,1.7829788105487823,12.043905194687843,-6.898062062656879
1683691954291100200,11.73310009765625,-0.06701280430406331,13.909079473364352,-9.396211588543652
1683691954301071000,11.743071044921875,-0.08140884779468179,14.317861349785327,-11.667660144734382
1683691954311043300,11.753043212890624,0.2217943468235433,12.993487892490625,-13.477742066264152
1683691954321014300,11.76301416015625,0.8997286797009408,10.83629933720827,-13.707751429855822
1683691954330985000,11.77298486328125,1.7638088306546211,9.258197202560305,-11.433187371993064
1683691954340956200,11.7829560546875,0.8196260921992361,8.01417212422192,-7.846514295125007
1683691954350928100,11.79292822265625,-0.04550634428635239,6.944861807754635,-4.127465714943408
1683691954360899300,11.8028994140625,-0.6173885326303541,6.044283087095618,-0.5946034309789539
1683691954370870000,11.8128701171875,-0.8236731756329536,5.143358913999796,2.345442597684264
1683691954380842200,11.82284228515625,-0.49323834828324614,4.406017283385991,4.728784133391082
1683691954390813200,11.832813232421875,-0.1124805701456964,3.568925238731503,6.430495404312015
1683691954400784100,11.8427841796875,-0.045632601014524696,2.6158652202069756,7.004263260272145
1683691954410756000,11.852756103515626,-0.7333319565810262,1.258662675499916,5.982071837854385
1683691954420727300,11.862727294921875,-1.9691094310559332,-0.5377922872155905,2.992471212427318
1683691954430698200,11.8726982421875,-2.4430536616086957,-2.392935001221299,-0.9077377986334264
1683691954440669200,11.882669189453125,-1.6124620848894118,-4.75714542773962,-3.9549990242600437
1683691954450641200,11.89264111328125,-0.19448584946356712,-7.535114934569597,-5.425075083953142
1683691954460612000,11.902612060546875,0.2842996836405247,-10.103394227737187,-4.6753632165879
1683691954470583300,11.912583251953125,-0.22430801014490423,-11.620198136335611,-2.1619966862164435
1683691954480555000,11.922554931640626,-0.3111936819154769,-12.209568050575255,0.25782310706004496
1683691954490526200,11.932526123046875,0.18690072809681296,-12.572265052169561,2.2733533668987453
1683691954500497200,11.9424970703125,0.7785935323260724,-12.676479459881781,3.7520290587633847
1683691954510469000,11.95246923828125,1.0507293885074556,-12.582440409225224,4.5192233913272615
1683691954520440000,11.962440185546875,0.4479074336290359,-12.281921339124441,4.762519229732454
1683691954530411300,11.972411376953126,-1.0205845717430113,-11.63726500647068,4.540941302138567
1683691954540382200,11.98238232421875,-2.3082699281096457,-10.731203470486403,3.870780525872111
1683691954550354200,11.992354248046874,-2.573226686441898,-9.915878436481952,3.187522659884393
1683691954560325000,12.0023251953125,-1.7351932692840695,-9.31068726825416,3.0491625292032953
1683691954570296000,12.012296142578125,-0.5510964438162743,-8.811440692532061,3.3768273803830144
1683691954580268000,12.02226806640625,-0.44904725131392476,-8.516333710607887,3.86735055142343
1683691954590239000,12.032239013671875,-1.6946202897466718,-8.674752002194523,4.009434378802776
1683691954600210200,12.042210205078124,-2.658683786714077,-9.169611741134524,3.325751273140311
1683691954610181000,12.05218115234375,-2.616560801255703,-9.719819273287058,1.8963070835649967
1683691954620153000,12.062153076171874,-1.749582736903429,-10.241845251572132,0.16406740338951348
1683691954630124000,12.0721240234375,-0.6233481716871261,-10.690302135777474,-1.336174369725585
1683691954640095200,12.08209521484375,-0.10932429807186127,-10.932810915458202,-2.102173355025053
1683691954650067200,12.092067138671876,-0.14773659244403242,-10.612909099495411,-1.7712201298244297
1683691954660038100,12.1020380859375,-0.2487351068496704,-9.778500010314584,-0.3435466031834483
1683691954670008800,12.1120087890625,-0.0062158057749271385,-8.8861940279603,1.1043658477574587
1683691954679979800,12.121979736328125,0.44277299335002895,-7.925572634270787,2.0028172009989618
1683691954689952000,12.131951904296875,0.8297674739200621,-6.865196734887361,2.4049476567067205
1683691954699922700,12.141922607421876,1.103675600470975,-5.94239332293868,2.704821853032708
1683691954709893600,12.1518935546875,0.32804778608269985,-5.55646859049201,3.136632722863555
1683691954719865900,12.161865966796874,-2.410014146316051,-5.512101040977239,3.700296825699508
1683691954729836800,12.1718369140625,-4.240490036576986,-5.095144041407108,4.052976583409309
1683691954739807700,12.181807861328124,-2.441939562886953,-3.7707185616642236,3.5792011335521936
1683691954749779700,12.19177978515625,-1.3487410058319569,-2.2794711191266774,2.3276512126669284
1683691954759751000,12.2017509765625,-1.116440170302242,-1.2771855896621942,0.8897583436980843
1683691954769721900,12.211721923828126,0.6158474406681954,0.7869324677348136,-0.2629667535588145
1683691954779692800,12.22169287109375,2.6144904247224328,5.050246330538392,-0.31134529228061436
1683691954789664800,12.231664794921874,2.715049232536554,8.759601199701429,0.1300295247092843
1683691954799636000,12.241635986328125,2.910069115811586,12.315366512608527,-0.5229851787060499
1683691954809607000,12.25160693359375,3.843874398767948,18.320559698331355,-1.8350047658622264
1683691954819579000,12.261578857421876,-0.4749603487927466,23.509542883908747,-3.9438858018323777
1683691954829549800,12.2715498046875,-5.559907917290926,25.923456960272787,-8.702384105485677
1683691954839521000,12.28152099609375,-1.1267654572226107,25.07172205775976,-15.470360821592807
1683691954849491700,12.29149169921875,1.1874012738406658,16.688843462395667,-20.180676693618295
1683691954859464000,12.3014638671875,-1.8190718681931495,9.09943871923387,-18.30464199823141
1683691954869435000,12.311434814453126,-0.44397257839813825,7.260708210846781,-12.175308053576945
1683691954879405800,12.32140576171875,0.25913039026632906,6.775991680258512,-7.502258959150314
1683691954889377800,12.331377685546874,0.5649591110825538,5.612947433561087,-4.757279283252358
1683691954899348700,12.3413486328125,0.717390656409785,4.534466553166508,-2.540001585449278
1683691954909320000,12.35131982421875,0.0701835432946682,3.712243576341867,-0.5575877055317163
1683691954919291000,12.361290771484375,-1.1412230216421186,2.960874004897475,1.0217390024751425
1683691954929262800,12.371262939453125,-2.034935802054405,2.1598907999783754,2.0103128174513576
1683691954939233800,12.38123388671875,-1.537333486407995,0.9695335989415645,2.124329657253623
1683691954949205000,12.391205078125,-0.17043956876993177,-0.6279647255718708,1.4283365205943583
1683691954959176700,12.4011767578125,0.8909528141796589,-2.307162843650579,0.2569195823490619
1683691954969148000,12.41114794921875,1.0876187110960482,-3.717874860227108,-0.533193853509426
1683691954979118800,12.421118896484375,0.7710521770358085,-4.75211035618186,-0.48905631335824723
1683691954989089800,12.43108984375,0.43150574940443037,-5.428806671696901,0.2190305811986327
1683691954999061800,12.441061767578125,0.21028869101218878,-5.949398233264684,1.207464403182268
1683691955009032700,12.45103271484375,0.051989788021519774,-6.5520490693598985,2.252626659081876
1683691955019004000,12.46100390625,-0.09974632238745688,-7.3121934834122655,3.2384368545636533
1683691955028975600,12.4709755859375,-0.3729284362187609,-8.130001566404104,3.959506272551417
1683691955038946800,12.48094677734375,-0.559925245101191,-8.889449814885854,4.502244199475646
1683691955048917800,12.490917724609375,-0.4456477085361257,-9.50947790223956,4.882981884673238
1683691955058889000,12.500888916015626,0.07037877360582351,-9.807255564677714,5.0036839013278485
1683691955068860700,12.510860595703125,0.9344248761594295,-9.650815295165776,4.8797649684533475
1683691955078831900,12.520831787109374,1.722550937592983,-8.522441379833221,4.172514816981554
1683691955088802800,12.530802734375,2.082158156478405,-6.209775847113132,2.7146698778301475
1683691955098774800,12.54077490234375,2.025834796231985,-3.81177304110825,0.9129246997520327
1683691955108745700,12.550745849609376,1.3812743251681328,-1.2758014418274164,-0.8251143143519759
1683691955118716700,12.560716552734375,-0.2640097963383421,2.5882377930909395,-2.632723123766482
1683691955128687900,12.57068798828125,-2.600440856581926,7.606611314028501,-4.606453054229915
1683691955138659800,12.580659912109375,0.073738605427742,13.20258189382553,-6.640347530537843
1683691955148630800,12.590630859375,3.2554934955656525,17.005318811041114,-7.793284224718809
1683691955158601700,12.600601806640626,1.353619425523281,14.888990673935412,-6.136641637319326
1683691955168574000,12.610573974609375,-1.3554478099942207,7.242329089069366,-3.0259564256608487
1683691955178544600,12.620544677734374,-2.453113283330202,2.5209406188875434,-0.8786044969990849
1683691955188515800,12.630515869140625,-3.0314567766427993,-0.8910352317661047,0.5018667316252365
1683691955198486800,12.64048681640625,-2.781532752269506,-3.479720768624544,0.703670539419353
