time,seconds_elapsed,z,y,x
1683692253301331200,0.041331298828125,0.013477321210503577,0.7402402746647596,-1.4236290735557675
1683692253311302400,0.051302490234375,0.354420171636343,0.6451891243562102,-1.2433929179146885
1683692253321274600,0.061274658203125,0.7097071892350911,0.557769199578464,-1.0466882964231072
1683692253331245300,0.071245361328125,0.8285983570754527,0.610390198175609,-1.019510074379295
1683692253341217500,0.081217529296875,1.0397457838088273,0.579349163223803,-1.1191633116558193
1683692253351189200,0.091189208984375,1.2377473132431507,0.46416181833744047,-1.2317894277520478
1683692253361160400,0.101160400390625,1.162555001875758,0.3419417983353138,-1.059161628222838
1683692253371132400,0.11113232421875,1.1628262200325727,0.17923779225349426,-0.8605576028507202
1683692253381103600,0.121103515625,1.172676582917571,0.16814064417779445,-0.5718582960117607
1683692253391075300,0.131075439453125,1.0991016436189411,0.027614275373518467,-0.26282668750099836
1683692253401047600,0.141047607421875,1.1939251226514578,-0.13355506848692894,-0.10329656221494078
1683692253411018500,0.1510185546875,1.2070113987177609,-0.1540612654209137,0.01233063539341092
1683692253420990500,0.160990478515625,0.951276057717204,0.1616898606032133,0.13576426896899937
1683692253430961400,0.17096142578125,-0.08167349008023739,0.5428849341794848,0.22507358768992125
1683692253440933400,0.180933349609375,-1.178618247926235,0.5933414482191205,0.2605250594951212
1683692253450905300,0.1909052734375,-1.5335107132494448,0.1768988279119134,-0.04540639104321599
1683692253460876500,0.20087646484375,-0.9020341801643371,0.1233759120389819,-0.21536898995116352
1683692253470848300,0.21084814453125,-0.12471709751486777,0.4822533553451299,-0.12054214991778135
1683692253480820500,0.220820556640625,-0.09978431631028652,0.9564601823568344,0.25384587399214503
1683692253490791400,0.23079150390625,0.2309668104469776,0.46767362585067745,0.12421521240733563
1683692253500763400,0.240763427734375,1.464759248584509,-0.7662175964862108,-0.1024973746612668
1683692253510734300,0.250734375,1.7601356950998306,-1.1951774608001111,-0.05248531645350158
1683692253520706300,0.260706298828125,0.8190437622666359,-0.9636460022076964,-0.7308929659310728
1683692253530678500,0.270678466796875,0.39077100343406196,-0.9732543730303644,-1.8356321039803325
1683692253540649500,0.2806494140625,0.8062748815864325,-0.7388567113518715,-2.4043135965868827
1683692253550621400,0.290621337890625,1.0734230124831199,-0.009587035773694515,-1.9628660066217183
1683692253560592400,0.30059228515625,0.6252478678286075,0.8836892529174685,-0.6837948954738676
1683692253570564600,0.310564697265625,0.11577332808077334,1.5050512192234395,0.8741776204675435
1683692253580536300,0.320536376953125,0.5641600696593523,1.615298769620061,1.7535830585859715
1683692253590507500,0.330507568359375,1.5475427457332611,1.1872434529304503,1.8838366013094783
1683692253600479500,0.3404794921875,0.7309428694874048,0.44400575001537795,1.2009662002693862
1683692253610450400,0.350450439453125,-0.9027297612130641,-0.3251017226934433,-0.21473661033175884
1683692253620422400,0.36042236328125,-0.7972218065589666,-0.13739099338799715,-0.3867538767471909
1683692253630394400,0.370394287109375,-0.5425076252996921,0.3365305869415402,-0.17045535086095331
1683692253640365300,0.380365234375,-1.2281015330195426,0.30305326475352046,-0.4793821107577532
1683692253650337500,0.390337646484375,-1.7914701600402592,0.24585838236957788,-0.37175562957972286
1683692253660308500,0.40030859375,-2.0820845067203044,0.2998439473181963,-0.3534425587758422
1683692253670280400,0.410280517578125,-2.066794583129883,0.3679015845000744,-0.5954398452704772
1683692253680252400,0.42025244140625,-2.069121564772725,0.6317179406255483,-0.8754341963998973
1683692253690223400,0.430223388671875,-2.7700439745277166,0.9707359604686498,-1.1391835517037658
1683692253700195300,0.4401953125,-3.2162674005925656,0.919796631348133,-1.7527635588966308
1683692253710166500,0.45016650390625,-2.962832153227925,0.6758563575595616,-2.188364322529733
1683692253720138200,0.46013818359375,-2.8461913946628568,0.839165051536262,-2.1036105482213197
1683692253730110500,0.4701103515625,-2.526998603752255,1.0181856939077376,-1.651988916374743
1683692253740081400,0.480081298828125,-2.076754251608252,0.9633040569022298,-1.1560327605001628
1683692253750053400,0.490053466796875,-1.6687112108558415,0.5957540623188018,-1.0930397862967103
1683692253760024300,0.5000244140625,-1.6060820284634827,0.3929068464189768,-0.9047701809994876
1683692253769996300,0.509996337890625,-1.427839092466235,0.3840124690845608,-0.4584524277146905
1683692253779968500,0.519968505859375,-0.5477519556939602,0.15680939508527517,-0.4690790356691926
1683692253789939500,0.529939453125,0.1846907969623804,-0.008724573725461959,-0.630006460532546
1683692253799911400,0.539911376953125,0.14507014971375465,-0.027105449068546294,-0.6561090161688625
1683692253809882400,0.54988232421875,0.13543138375282288,-0.07221680268794298,-0.8202206240262836
1683692253819854600,0.5598544921875,0.4173001139193773,-0.1102899282336235,-0.9863474441636353
1683692253829826300,0.569826416015625,0.43412499199211596,0.016995266203582285,-1.029948831611499
1683692253839797500,0.579797607421875,0.44516251883506774,0.14261545003801585,-0.973260802771151
1683692253849769500,0.58976953125,0.5452063628643751,0.18604718000739812,-0.8932477201838046
1683692253859740400,0.599740478515625,0.5920072770059108,0.17817630050182343,-0.9389778632886707
1683692253869712400,0.60971240234375,0.6607587416708469,0.18303835358023643,-0.9872164820831268
1683692253879684400,0.619684326171875,1.2883844445466994,0.24833324805051088,-1.0161394289024173
1683692253889655300,0.6296552734375,1.1363415332108735,0.2720385332867503,-0.5933177750825882
1683692253899627500,0.63962744140625,0.29879589956998825,-0.2373173485174775,-0.43507191745340823
1683692253909598500,0.649598388671875,1.079585042244196,-0.28928865103423596,-0.4697187948774546
1683692253919570400,0.6595703125,1.1778402492910622,0.20842706185877322,-0.6047161711271852
1683692253929542400,0.66954248046875,1.4517852007210255,0.3466778869464993,-0.6846705823298543
1683692253939513300,0.679513427734375,1.8024053955525159,0.32622634280920026,-0.5968637771263718
1683692253949486000,0.689486083984375,2.0688748965352772,0.4722840422555804,-0.7621274045631289
1683692253959457000,0.69945703125,2.1059657330453394,0.6486760896891355,-0.8403366525989026
1683692253969429000,0.709428955078125,2.0959061113238335,0.6889683525890111,-0.7800717881850898
1683692253979401000,0.71940087890625,2.0017624312490225,0.5567457017496228,-0.8381800590869039
1683692253989372000,0.729371826171875,1.7395447424918413,0.3830053378686309,-0.879443943497911
1683692253999343900,0.73934375,1.608088107588887,0.26993396222293375,-0.8314037698850035
1683692254009315000,0.749315185546875,1.6862556353747844,0.2031882844224572,-0.850003037219122
1683692254019286800,0.759286865234375,2.020031078389287,0.4801318331465125,-0.9122913702845573
1683692254029259000,0.769259033203125,2.132031902194023,1.011193058541417,-0.856921657501161
1683692254039230000,0.77922998046875,2.170044529724121,1.1985317396640778,-0.8445756784081458
1683692254049202000,0.789201904296875,2.063220816296339,1.259852177545428,-0.19061828731521963
1683692254059172900,0.7991728515625,-0.062437459212541575,1.1460223847478628,-1.0109191369708628
1683692254069145000,0.80914501953125,2.5118805295974016,1.9737626636892556,0.00036967356260865925
1683692254079117000,0.819116943359375,4.263306264019012,2.921022471502423,1.4038361394576728
1683692254089088000,0.829087890625,3.4876574068427084,2.2041715479925275,0.6246146844916045
1683692254099060000,0.83906005859375,3.0625287912547585,1.5303969651430844,-0.09961655852794647
1683692254109031000,0.849031005859375,3.441717493444681,1.4720938292562962,0.26122780093699693
1683692254119003100,0.859003173828125,3.1272353644430635,1.4700395270749926,0.6733762311816215
1683692254128974800,0.868974853515625,2.5389935774505137,1.515600670288503,0.5335913283944129
1683692254138946000,0.878946044921875,3.0642928783178327,1.9465832726016639,0.15787234814167023
1683692254148918000,0.88891796875,2.967556843662262,2.7531623978316784,0.2746794031843543
1683692254158889000,0.898888916015625,2.6556834358543155,3.4306007638856766,-0.15341449194997547
1683692254168861000,0.90886083984375,2.5791233432650564,4.027327762889862,-0.4545665992572903
1683692254178833000,0.9188330078125,2.372950197812915,4.376949594333768,-0.3114790016628802
1683692254188803800,0.928803955078125,2.425796237337589,4.737479188761115,-0.052382075274735686
1683692254198776000,0.938776123046875,3.220768219143152,5.074890357929468,0.4238125645533204
1683692254208747000,0.9487470703125,3.1839000854730606,4.9955339126199485,0.44010026700943705
1683692254218719000,0.958718994140625,2.00499308373332,5.352396216711401,0.5386418897822499
1683692254228691000,0.96869091796875,1.0414888280838728,6.264501124513149,0.49050417407900093
1683692254238662000,0.978661865234375,-0.4427180482923984,7.290390816926956,0.08017097656279802
1683692254248633900,0.9886337890625,-0.1380968035697937,7.957645934879779,0.6142208623796701
1683692254258605000,0.99860498046875,1.137843754467368,5.88722614699006,2.826450336882472
1683692254268576800,1.00857666015625,1.7492273475944995,4.180892476965487,4.124763470247387
1683692254278549000,1.018549072265625,2.733356458121538,5.540061061048507,3.7425247328370808
1683692254288520000,1.02852001953125,2.803800113657117,8.342028698581457,3.1550369790822264
1683692254298492000,1.038491943359375,2.1344763727366924,8.028696908658743,1.9219769468724726
1683692254308462800,1.048462890625,0.9090513654500245,7.690508909898996,2.2074644520580766
1683692254318435000,1.05843505859375,-0.6771867293804884,7.808648382589221,2.0317367137521503
1683692254328407000,1.068406982421875,-1.9758061522155999,7.6390727371722456,1.2262129427939652
1683692254338378000,1.0783779296875,-2.095170198264718,7.209156302785873,0.43849604668319225
1683692254348350000,1.088349853515625,-4.541895826384425,6.5156941459089515,-0.056797407498955725
1683692254358321000,1.09832080078125,-3.2634903395384547,5.3797594399332995,0.6672101097673178
1683692254368293000,1.108293212890625,-2.8254052117437123,5.156005629605055,-0.17449907329380512
1683692254378264800,1.118264892578125,-5.703251973864436,5.1118753959774965,-4.531563817462325
1683692254388236000,1.128236083984375,-6.846864374861121,4.53515453543067,-8.317054416322708
1683692254398208000,1.1382080078125,-6.925012613424658,3.705406423798203,-10.14690019198656
1683692254408179000,1.148178955078125,-7.682177719405293,2.5952017868846653,-12.462984008717536
1683692254418151000,1.15815087890625,-8.568055130016804,1.6733156359113752,-14.127802888309954
1683692254428123000,1.168122802734375,-8.559714002650976,0.8520020290166139,-15.018662178987263
1683692254438093800,1.17809375,-8.33433814407885,0.05462123250365257,-15.344949312072991
1683692254448066000,1.188066162109375,-8.336194585600495,-0.8091881386846304,-14.811139372491835
1683692254458037000,1.198037109375,-7.460857273703813,-1.6606453933000564,-13.83562026939988
1683692254468009000,1.208009033203125,-5.361420650166273,-3.2326515491604804,-13.286692255663871
1683692254477981000,1.21798095703125,-2.940678189086914,-6.0219222022056575,-12.156751821666955
1683692254487952000,1.227951904296875,0.5616834504127503,-5.874604565826058,-8.283549621605873
1683692254497923800,1.237923828125,0.2182441069960594,-5.318600914615392,-8.40567494906187
1683692254507895000,1.24789501953125,0.10955518421828746,-4.336391958495974,-7.717009378811716
1683692254517866800,1.25786669921875,0.08272621400356292,-2.862006218910217,-6.449976349851489
1683692254527838000,1.267837890625,-0.12862754895687104,-2.2742785189196466,-5.088553557100892
1683692254537810000,1.277809814453125,-0.03499474101364612,-1.481030876688659,-3.765853585976362
1683692254547782000,1.287781982421875,-1.1596633720874785,-1.020876248165965,-2.2636983804553745
1683692254557752800,1.2977529296875,-3.13322846737802,-0.5719485315784811,-0.5316209051042795
1683692254567725000,1.30772509765625,-4.581137118926644,0.34360885476469993,-2.426536826571822
1683692254577695700,1.31769580078125,-4.820674189320206,0.8862114648714661,3.3784330620139835
1683692254587668000,1.32766796875,-1.4282763148397206,1.0808636838778853,3.6651112382888793
1683692254597640000,1.337639892578125,-2.2778993397653102,2.8482264076218007,4.4724160474449395
1683692254607611000,1.34761083984375,-1.210468845695257,3.9368361755818126,6.858854087862372
1683692254617583000,1.3575830078125,-0.18750351629555223,4.096668425619602,7.5414342007189985
1683692254627554000,1.367553955078125,-0.07548281874656677,4.011932040837407,8.078015358579158
1683692254637526000,1.377526123046875,0.3420674705415964,2.9717835214465853,7.619234064236283
1683692254647498000,1.387498046875,2.0340806465297936,2.3888237665101886,7.900130734500289
1683692254657469000,1.397468994140625,3.001497107186913,2.1403253910258413,7.363312845274805
1683692254667441000,1.40744091796875,2.7005238635778426,1.5233189895808696,6.20099515928626
1683692254677412000,1.417412109375,2.9817478661000725,0.8419549745157361,5.518884417507052
1683692254687383800,1.4273837890625,3.5645366483837364,0.9238877000540494,5.13975124489665
1683692254697356000,1.43735595703125,2.818849798750877,0.9328340998366474,4.643165412816405
1683692254707327000,1.447326904296875,3.079393416815996,0.782673933507502,3.643127370017767
1683692254717299000,1.457298828125,3.2039918563872574,0.3047521776258945,1.9730770195126532
1683692254727270000,1.467269775390625,3.001419365775585,-0.3625882805228233,0.8394125965565442
1683692254737241900,1.477241943359375,2.1581629532724618,-0.8551426651298999,-0.5416705899536609
1683692254747213800,1.4872138671875,1.0791145021229982,-1.2964526001900434,-1.7353811930716037
1683692254757185000,1.49718505859375,-0.5021919815242291,-1.630500138144195,-2.7287545172840355
1683692254767156700,1.50715673828125,-2.836396561357379,-1.3492381416991353,-4.803868015947938
1683692254777128000,1.5171279296875,-2.2904244748175144,-0.8316349482923746,-4.0317268746316435
1683692254787100000,1.527099853515625,-0.4329290602058172,-1.6764292378872632,-1.640414506176114
1683692254797071000,1.537071044921875,-1.2613175739228724,-0.8494453302711248,-0.6910656171292067
1683692254807042800,1.547042724609375,-2.5632500668287275,-0.2838648724198341,-0.45851416783928867
1683692254817015000,1.55701513671875,-3.025363720464706,-0.7142816575437784,-0.07696575078070163
1683692254826985700,1.56698583984375,-2.8168828825920817,-0.7826327247142791,0.9612070846229791
1683692254836958000,1.5769580078125,-2.7168682646572586,-0.7954904527217149,1.3441232829034329
1683692254846929000,1.586928955078125,-2.323721179741621,-0.5520961223781109,1.2500439002364874
1683692254856900900,1.59690087890625,-1.8420009083598852,-0.5173369436860085,1.192102583399415
1683692254866873000,1.606873046875,-1.5253507876694201,-0.23444120855927467,0.5244038133323192
1683692254876844000,1.616843994140625,-0.8266653431862592,-0.31798224607706066,-0.2856698760151863
1683692254886816000,1.62681591796875,-0.6341051280230283,-0.5767541782945395,-1.729284045240283
1683692254896787000,1.636786865234375,-1.000113446122408,-1.1996809096992016,-2.542236504894495
1683692254906759000,1.646759033203125,1.2655401600539684,0.1659387502193451,-1.6475784064561128
1683692254916729900,1.656729736328125,0.5117138431072235,-0.34499241807758807,-2.432534605681896
1683692254926702000,1.6667021484375,-0.5165495927006006,-0.6071101535916328,-2.7814181859791276
1683692254936673800,1.676673828125,-0.5327765048801899,0.17018004105091095,-2.398659224087
1683692254946644200,1.686644287109375,-0.2430325112938881,0.589183451756835,-1.8811375714838503
1683692254956616400,1.696616455078125,-0.48380058478713034,1.0323954210460184,-0.9526274723261594
1683692254966587400,1.70658740234375,-1.0480933409154414,1.03384737342,-0.44792029311060905
1683692254976559400,1.716559326171875,-0.7776689648270606,1.0569985319048165,-0.7304340431824327
1683692254986531300,1.72653125,2.263005722016096,-0.8268909686356782,-1.2372799879923462
1683692254996502300,1.736502197265625,2.3854613043397666,0.942773602309823,0.03499766362309455
1683692255006474200,1.74647412109375,1.6364397573262452,0.6796282773137092,1.450094471155107
1683692255016445400,1.756445556640625,0.6027765083014964,-0.018597148442268372,1.4372417115837335
1683692255026417200,1.766417236328125,-0.32677111721038815,-0.4065326361894607,1.5091875883758068
1683692255036389400,1.776389404296875,0.2974631896615028,-1.4563099846690892,1.8862299261867999
1683692255046360300,1.7863603515625,0.13729425501525402,-1.634690575571358,1.652783281622827
1683692255056332300,1.796332275390625,0.8344377307534218,-2.5469611953288314,1.8416569172278046
1683692255066303200,1.80630322265625,1.0592734910994768,-3.5014655674427746,1.4226424006059766
1683692255076275500,1.816275390625,0.7853256170600652,-3.5321430297791956,0.7956073570996522
1683692255086247200,1.8262470703125,0.3848170634657144,-3.6243338222205637,0.16836977675855158
1683692255096218400,1.83621826171875,-0.028721067571640013,-3.4225182874560356,-0.25628362253308296
1683692255106190000,1.846190185546875,-0.28825404728949067,-3.163178784483671,-0.3694119890630245
1683692255116161300,1.856161376953125,-0.3460392967820167,-3.072585490366816,-0.661407560968399
1683692255126133200,1.86613330078125,-0.11786767001152038,-2.808980146643519,-0.7391980721354484
1683692255136104400,1.8761044921875,0.043477322676777834,-2.6559669289708134,-0.686076138278842
1683692255146076200,1.886076171875,0.09339841466546057,-2.489403909373283,-0.6447212145835161
1683692255156048400,1.89604833984375,0.035974984222650525,-2.21408854637295,-0.6985059962630271
1683692255166019300,1.906019287109375,0.07560147669017314,-2.0864795268088576,-0.7839747869729995
1683692255175991300,1.9159912109375,-0.1284755732655525,-1.7600673060387373,-0.662493018117547
1683692255185962200,1.925962158203125,-0.11471125180721282,-1.2697621616631745,-0.3216068663150072
1683692255195934200,1.935934326171875,-0.23916940612494944,-0.9077695089459419,0.028501871863007545
1683692255205906400,1.945906494140625,-0.7794067484050988,-0.5206316013172269,0.21833879954218863
1683692255215877400,1.95587744140625,-1.137491287767887,-0.2454360653042793,0.018799977537989614
1683692255225849300,1.965849365234375,-1.1395271775096654,-0.09654489599764346,-0.1336211194604635
1683692255235820300,1.9758203125,-1.3537380834668873,-0.1561339800417423,-0.6138263101041317
1683692255245792500,1.98579248046875,-1.4441875851988792,-0.347290173625946,-1.2347557302117347
1683692255255764200,1.99576416015625,-1.280876845395565,-0.8494786480188369,-1.2516513354331253
1683692255265735400,2.0057353515625,-0.8312970946401357,-1.392599729041755,-1.129748126295209
1683692255275707100,2.01570703125,-0.40866614108681676,-1.2828963685244321,-1.0075859739601611
1683692255285678300,2.02567822265625,-0.6843833628863096,-1.2057087916865945,-0.3070622081339359
1683692255295650300,2.035650390625,-0.3491080367028713,-1.2608408963218332,0.0644715953886509
1683692255305621500,2.04562158203125,-0.13009236081242562,-0.9552633737877011,0.2785895623654127
1683692255315593200,2.05559326171875,-0.35494507229328154,-0.7653098339915275,0.5700333456069231
1683692255325565400,2.0655654296875,0.008976502659916877,-0.6391042514845728,0.42579263245463367
1683692255335536000,2.0755361328125,0.09459551549553871,-0.7097834693416952,0.5265946013748646
1683692255345508400,2.08550830078125,-0.09630699558854103,-0.6863654766142367,0.13939561120867727
1683692255355479300,2.095479248046875,0.0160948102325201,-0.46305590292215343,-0.0006336217284202575
1683692255365451300,2.105451171875,0.1521831965893507,-0.1591293624654412,-0.08359130640029906
1683692255375423500,2.115423583984375,-0.12877134134173393,-0.09088701636642217,-0.24053660282492637
1683692255385394400,2.12539453125,-0.34020343023538585,-0.04196136515587568,-0.19642916555106638
1683692255395366400,2.135366455078125,-0.3092325379103422,-0.043163726682960986,-0.041017070043087
1683692255405337300,2.14533740234375,-0.21599077511131762,0.3781815709739923,0.7086924592345952
1683692255415309300,2.155309326171875,-0.647626872897148,0.47659342988729475,1.034580363869667
1683692255425280300,2.1652802734375,-0.5074772284507751,0.8432651803314686,1.40425655682683
1683692255435252500,2.17525244140625,-0.351613297522068,1.6526374434113502,1.5836147605895996
1683692255445224200,2.18522412109375,-0.5553387575611471,1.1691340880051255,0.9405267001658677
1683692255455195400,2.1951953125,-0.4954372465670108,0.6423942329406738,0.3141156337767839
1683692255465167400,2.20516748046875,-0.48023938517421483,0.170215404625237,-0.14657295549213886
1683692255475138300,2.21513818359375,-0.18335516444444655,-0.2214277054682374,-0.9246417332917451
1683692255485110300,2.2251103515625,0.3064578125,-0.4864695117354393,-2.154801367884874
1683692255495082500,2.23508251953125,0.8487760527074336,-0.924628873810172,-4.447953221839666
1683692255505053200,2.24505322265625,2.237225676332414,-3.8636347457706925,-4.122144812181592
1683692255515025400,2.255025390625,2.024305102446675,-1.8209961142539977,-2.834377038228512
1683692255524996400,2.264996337890625,0.8824152874588966,1.4852055320248008,-0.9517641334950924
1683692255534968300,2.27496826171875,0.5873860469460487,1.4317644492164254,0.8224012560009956
1683692255544939300,2.284939208984375,-0.4796446341514587,-0.1727174505740404,-0.3108580932855606
1683692255554911500,2.294911376953125,-0.7832435500890016,-0.4927931617990136,-0.20728958226144312
1683692255564883200,2.30488330078125,-0.35209348225444553,0.21690233699828385,0.18471359331607817
1683692255574854400,2.3148544921875,0.2768532400920987,-0.01289075349420309,0.5918009407788515
1683692255584826000,2.324826171875,1.0833271513819693,-0.02760229267477989,0.980123966538906
1683692255594797300,2.33479736328125,0.9793217102453112,0.0925917744576931,1.121512212869525
1683692255604769300,2.344769287109375,0.3995692269176245,0.2216363797828555,1.4123831646591425
1683692255614741200,2.3547412109375,-0.15414017587602138,0.695835608009994,1.8311551046967505
1683692255624712200,2.364712158203125,-0.9655632340058684,-0.25641455543637276,2.3135429000765084
1683692255634684400,2.374684326171875,0.5370344545856118,-1.676830512164533,1.583736925664544
1683692255644655000,2.384655029296875,1.0398609346210956,-1.6734683422550558,0.08293138118684291
1683692255654627300,2.39462744140625,0.4328749919310212,-1.5286194340765475,-0.5381342325210571
1683692255664598300,2.404598388671875,-0.25401860021054745,-1.3291817343592642,-0.9133967011779546
1683692255674570200,2.4145703125,-0.5086775441512466,-1.26472562880069,-1.483582606998086
1683692255684542500,2.42454248046875,-1.4086515769153833,-1.5793986041992902,-1.3181775252640247
1683692255694513400,2.434513427734375,-1.4345429740190505,-1.5383023314401507,-1.4608558114051817
1683692255704485400,2.4444853515625,-1.0445511382639407,-1.5353826446011662,-0.7802402766197919
1683692255714456300,2.454456298828125,-1.0805091713517903,-1.2863128989696502,-0.013963643422722816
1683692255724428300,2.46442822265625,-0.9025774932608008,-1.3711401769056915,0.844728238621354
1683692255734400300,2.474400146484375,-0.6908826617777347,-1.3611620959877968,1.1300234361052512
1683692255744371500,2.484371337890625,-0.12360124522745608,-1.1692501156002282,1.3546353245675562
1683692255754343200,2.49434326171875,0.5172185780033469,-1.1725848129808902,1.0865051968961954
1683692255764314400,2.504314453125,0.5550818601906299,-1.5297195042729377,-0.3960410527914762
1683692255774286300,2.514286376953125,0.9383902726590633,-1.9766645226106045,-1.0166787964761257
1683692255784257500,2.524257568359375,2.418368133163452,-1.0640519575476646,0.9948153397142887
1683692255794229200,2.534229248046875,1.9790408963531254,-1.9854028326004742,0.7271066523253917
1683692255804201500,2.544201416015625,1.4908008678138256,-0.970468833965063,0.06636778439879416
1683692255814172200,2.554172119140625,0.934528336533904,0.31041561021506786,0.6768968065232038
1683692255824144400,2.564144287109375,0.5916942655339836,0.4413184106275439,1.1324287436813116
1683692255834115300,2.574115234375,0.4271820409864187,-0.09078384825289249,1.299545305508375
1683692255844087300,2.58408740234375,0.939796924586594,-0.501365759833157,1.3922171594649553
1683692255854059300,2.594059326171875,1.3431015386402607,-0.028371523481607437,1.6651123095810412
1683692255864030500,2.604030517578125,0.2623872001051903,-0.010342530316114425,1.4239736492097377
1683692255874002200,2.614002197265625,-0.32823739037066696,0.29055180283784865,2.76574773863852
1683692255883973400,2.623973388671875,-0.2931897501260042,0.8465379183918237,3.3983968226343393
1683692255893945300,2.6339453125,-0.6064291855901479,0.47041620255708694,3.1950691297411917
1683692255903916300,2.643916259765625,-1.212216273884475,1.0456681595951318,3.736041216036677
1683692255913888300,2.65388818359375,-2.1480568620607254,0.8308791614890098,2.4063047704041
1683692255923860200,2.663860107421875,-3.744728964883089,0.9716787942767142,0.3855634979188442
1683692255933831200,2.6738310546875,-4.225482144798338,-0.15202303759157657,-2.192795875236392
1683692255943803400,2.683803466796875,-2.957019083034992,-1.6273527800291776,-5.063450095504522
1683692255953774300,2.6937744140625,-0.12005348961800336,-2.5373469792872667,-6.415664914926886
1683692255963746600,2.70374658203125,2.0473320500299335,-2.94641176430285,-5.253748210954666
1683692255973717500,2.713717529296875,3.531075108286738,-2.8668185876280066,-2.7560627954483032
1683692255983689500,2.723689453125,2.945806784147024,-1.6513853975236414,-0.18135609958171844
1683692255993661700,2.73366162109375,0.8715254985235631,0.05335282000303268,0.9124375007569789
1683692256003632600,2.743632568359375,-1.783783112668991,0.4443833511561155,-3.8013749812126156
1683692256013604600,2.7536044921875,-2.4013537238679823,0.4416115483552217,2.011229932296276
1683692256023575600,2.763575439453125,-5.582300950884819,-1.2513602435320614,5.234025273352861
1683692256033547500,2.773547607421875,-5.110792276915908,0.8200988242775201,4.414902600631118
1683692256043519500,2.78351953125,-2.490321608740091,2.5473756213486194,3.0023212830513715
1683692256053490700,2.79349072265625,-0.07451602867417968,3.0830928558558224,2.4392612835884093
1683692256063462400,2.80346240234375,2.540736621725559,2.506853056824207,2.1191163065195084
1683692256073433600,2.81343359375,5.3790182661771775,0.23048574893176554,-1.3113093930602073
1683692256083405600,2.823405517578125,7.032878529381752,-0.43100189153552054,-4.9242234111219645
1683692256093376500,2.83337646484375,6.407548828488588,-1.729780304324627,-4.592562768304347
1683692256103348500,2.843348388671875,3.9684254920661446,-1.9717191751629113,-3.6542397156625985
1683692256113320700,2.85332080078125,2.17949727159366,-2.453819970294833,-2.5257915660500525
1683692256123291400,2.86329150390625,1.0068586825989185,-3.5758640980839727,-3.56504255207926
1683692256133263600,2.873263671875,0.16523483973369002,-5.181699458310008,-2.3687723276063797
1683692256143234600,2.883234619140625,-2.8695009585797786,-6.691357002285122,-2.949178598667681
1683692256153206500,2.89320654296875,-4.748595041537285,-6.397060167700052,-3.485022674424946
1683692256163178800,2.9031787109375,-7.052540676707029,-7.057621340972185,-3.453794007946551
1683692256173149700,2.913149658203125,-6.643651248258352,-6.966535879424214,-2.854799940793216
1683692256183121700,2.92312158203125,-5.261709399092197,-6.600235300379991,-1.8926511914059518
1683692256193092600,2.933092529296875,-3.4940555834472176,-4.035466061159968,-1.0721440785884857
1683692256203064600,2.943064697265625,-2.531851889002323,-1.3338333595573901,0.435818351906538
1683692256213035500,2.953035400390625,0.08814590096473693,4.1412528327554465,2.6301202477917074
1683692256223007700,2.9630078125,1.8804992735803125,10.05831473056078,5.012462251067161
1683692256232979500,2.9729794921875,0.8494166886985302,10.464466258478165,3.502363393065333
1683692256242950700,2.98295068359375,2.370790389430523,10.483007292819023,0.7629150478094816
1683692256252922600,2.992922607421875,1.8616928663015364,11.51529399279356,0.4311714028835296
1683692256262893600,3.0028935546875,0.7767536035478114,12.373076358777285,1.0185156565144657
1683692256272865500,3.012865478515625,0.0042716859698295594,9.285740458524227,1.5259417392998933
1683692256282837500,3.02283740234375,-0.058898763692378994,5.371937952527404,-0.03069412121027708
1683692256292808400,3.032808349609375,-0.14796349653508514,0.7496107450783253,-2.140340588594973
1683692256302780700,3.04278076171875,1.8287211555480956,-2.302959546741843,-0.7830921589195727
1683692256312751600,3.052751708984375,2.313715334033966,-4.758754031980037,-4.065604302053154
1683692256322723600,3.0627236328125,1.691724422174692,-4.722536471173167,-4.266515289193392
1683692256332694500,3.072694580078125,0.376418104965426,-2.7841584245979782,-2.8546421198830005
1683692256342666800,3.082666748046875,-0.36288759226296097,-0.8585825764507055,-1.5571170681558548
1683692256352637400,3.092637451171875,-1.020714335602522,-0.8055641029685735,0.2064016935110092
1683692256362609700,3.102609619140625,-1.3079273494064807,-1.8471558069050311,0.9966419706195593
1683692256372581400,3.112581298828125,-0.5295265631735324,-2.584446584114432,2.486327570667863
1683692256382552600,3.122552490234375,-0.4396165751457214,-3.5377941874086853,2.7053894237875937
1683692256392524500,3.132524658203125,-0.9464099129855632,-3.593043780943751,2.249189524240047
1683692256402495700,3.142495849609375,-0.6197983702510595,-2.819597986769676,1.5348929613880813
1683692256412467500,3.152467529296875,-0.7935153532564639,-1.6237094550907611,0.3349455097071826
1683692256422439700,3.162439697265625,-0.5969973403781652,-1.2476917841523885,0.4205559739101678
1683692256432410400,3.172410400390625,-0.2516699912577867,-0.7989625127464532,1.1826264606542884
1683692256442382600,3.182382568359375,-1.0349766697108744,-2.4895266589701173,3.0006074648708103
1683692256452353500,3.192353515625,-2.944553569215536,-6.4279194163441655,1.8217811271518467
1683692256462325500,3.202325439453125,-1.5167968943357466,-9.27661198017299,-0.3986892292127013
1683692256472296400,3.21229638671875,0.9338473685324191,-8.281851000994443,1.2049774817373602
1683692256482268700,3.2222685546875,1.0270061292231083,-6.4782923437535755,1.886458328115195
1683692256492240600,3.23224072265625,0.5250935491621495,-4.137860852229595,2.395016483670473
1683692256502211600,3.242211669921875,1.917836193805933,-2.310309324982762,1.8963212582208215
1683692256512183600,3.25218359375,4.876518826138973,-1.750880960020423,-0.2034366696929559
1683692256522154500,3.262154541015625,2.3734125546276568,-0.8150736895918845,0.07393544317409395
1683692256532126700,3.272126708984375,-2.006543235784769,4.62907551266551,0.22054610032811758
1683692256542097700,3.28209765625,-0.523682513320446,8.684373232498764,-2.3809233686491846
1683692256552069600,3.292069580078125,-0.7687614357501268,11.605193459427356,-2.6298160041481253
1683692256562041600,3.30204150390625,-2.66113936317265,11.354141307806968,-1.3749036210924386
1683692256572012500,3.312012451171875,-2.2034850270330906,8.719010830637812,0.02747925995015539
1683692256581984500,3.321984619140625,-0.5699614494144917,3.1260715813606974,0.8596990132600069
1683692256591955700,3.331955810546875,-0.07733166148364544,6.079388302746414,2.0481600252866743
1683692256601927400,3.341927490234375,-0.23235797254443166,4.753405656689405,1.166844808024168
1683692256611898600,3.351898681640625,-0.30493805558681486,3.384204046630859,0.9255623552680015
1683692256621870600,3.36187060546875,-0.17546353441178797,3.1991058379113673,0.4104872190341353
1683692256631842600,3.371842529296875,1.1057067409723997,2.2507050433695315,0.8096016879215836
1683692256641813500,3.3818134765625,0.9954776030153035,0.976427450108528,2.037197901767492
1683692256651785700,3.39178564453125,-1.032081532791257,0.8338532088637352,2.3186250256463885
1683692256661756400,3.40175634765625,-3.239434925690293,1.9836872608542442,2.4611279552206398
1683692256671728600,3.411728759765625,-4.6875510825097555,3.578897766691446,1.4544626032367347
1683692256681699600,3.421699462890625,-4.44298478577733,4.866293200200796,-0.014383330139517782
1683692256691671600,3.431671630859375,7.926865012168884,0.39502223113775253,0.15359920086711645
1683692256701643500,3.4416435546875,8.749757266557216,-4.95455717458725,0.5463333210676908
1683692256711614700,3.45161474609375,0.5835457015981897,-6.1038844460994,1.4211127068206668
1683692256721586400,3.46158642578125,2.0277567042052747,-7.769128273105621,3.715036129669845
1683692256731557600,3.4715576171875,-1.9031670324623584,-7.444542683240771,1.2124170571535826
1683692256741529300,3.481529296875,-4.809162030702829,-5.033588625726104,-0.12428703553453087
1683692256751500500,3.49150048828125,-3.961650883364677,-2.7368027991831303,-0.8699220088496804
1683692256761472500,3.501472412109375,-0.460567008715868,-0.5267570984601975,-1.9420741246141493
1683692256771444500,3.511444580078125,2.0852982080698013,1.50433254956007,-2.6869679241731763
1683692256781415400,3.52141552734375,1.4508359371721744,2.44714882196784,-2.9376377984777093
1683692256791387600,3.5313876953125,-0.017160393637418746,2.0493653094232083,-4.497763839191198
1683692256801358300,3.5413583984375,-0.6903039120417088,1.3012199607223272,-6.229079682520031
1683692256811330600,3.55133056640625,-0.22269465666413304,2.039723036330938,0.4900523386582732
1683692256821302500,3.561302490234375,-0.1378653694340959,0.38006606954634187,0.24081856157146392
1683692256831273500,3.5712734375,-0.43384270445201545,-7.122296349978447,-16.981404851490257
1683692256841245700,3.58124560546875,0.36323129113409663,-2.5394588568747043,-6.157250125584006
1683692256851216600,3.591216552734375,0.7626689640939235,4.79429705452621,11.161052684855461
1683692256861188600,3.601188720703125,0.34187052319739014,5.023016962829232,16.062278082227706
1683692256871159600,3.61115966796875,0.33865324165131894,1.7383897272378206,11.117529184949397
1683692256881131800,3.6211318359375,0.32241526008844373,-0.4747743977665901,6.024729660841822
1683692256891103500,3.631103515625,0.2874795923182741,-1.2386445543438196,2.5289818865239617
1683692256901074700,3.64107470703125,0.4437608353435993,-0.9423527465492486,0.02277764899730682
1683692256911046400,3.65104638671875,0.3156044110298157,-0.6479132886230945,-1.803051438371092
1683692256921017600,3.661017578125,-0.004028561396338046,-0.574531826069951,-3.1165429977759715
1683692256930989600,3.670989501953125,0.03681782825496047,-0.46138183223009105,-3.9262940310403702
1683692256940960800,3.680960693359375,0.2329238262662664,-0.3934843540459871,-4.257904989497363
1683692256950932700,3.6909326171875,0.23042316855695097,-0.23210487456619738,-3.9609138012617824
1683692256960904700,3.70090478515625,0.04468786751031875,0.15932313147187233,-2.7165684049278496
1683692256970875600,3.710875732421875,-0.25268413673639295,0.32761282873153685,-1.0050855354465544
1683692256980847600,3.72084765625,-0.4558931351533159,0.15279811361730097,0.06249759190194308
1683692256990818800,3.73081884765625,-0.5944774299791082,-0.060902504730224606,0.6734017309490591
1683692257000790500,3.74079052734375,-0.8984019611418247,-0.6995920379340648,1.2954008991800248
1683692257010761700,3.75076171875,-0.29757070515658707,-1.063345855104923,1.0075458611454815
1683692257020733700,3.760733642578125,0.24032738052103667,-0.5949772327274083,-0.21950506684258578
1683692257030705700,3.77070556640625,0.38216855825092644,0.6050730948060751,-0.8558964061066507
1683692257040676600,3.780676513671875,0.04965981070399284,1.140833583933115,-0.5946404019884765
1683692257050648600,3.790648681640625,-0.11029811154007911,0.9401333169341087,-0.4127642240554094
1683692257060619500,3.80061962890625,-0.2505494993278757,0.38276889876425263,-0.05463460344187915
1683692257070591700,3.810591796875,-0.31641342585776,-0.14067980580031872,0.6084842914890498
1683692257080562700,3.820562744140625,0.1549964639117941,-0.7671516624659299,1.2052689389646052
1683692257090534700,3.83053466796875,0.06679444884564727,-2.5898750389039513,1.8974390102043748
1683692257100506600,3.840506591796875,-1.2789525993347166,-4.843861588162183,3.38773660467118
1683692257110477600,3.8504775390625,1.3224351827085017,1.7073019305348396,1.428829857069254
1683692257120449500,3.860449462890625,0.8765162925481795,3.7663299713164564,0.8167219682555645
1683692257130420700,3.870420654296875,-0.6820318313241005,3.242770207592845,0.8499688426885753
1683692257140392400,3.880392333984375,0.20652203195504842,1.9180021980226039,-0.22221344901844858
1683692257150363600,3.89036376953125,0.2597544769814238,-0.05773731869757175,-0.15857545490972697
1683692257160335600,3.900335693359375,0.4134907116990536,-0.7171031447052956,1.5305299438729882
1683692257170307600,3.9103076171875,0.4390051287164911,-0.8142886766940355,2.2626544243603943
1683692257180278500,3.920278564453125,0.3400455362599343,-0.46657180208861826,1.7416779551282524
1683692257190250800,3.930250732421875,0.08326159952189773,0.24906945337057113,0.5197638055067509
1683692257200221400,3.940221435546875,-0.5763244816403835,0.611634353017807,-0.6895098390545695
1683692257210193700,3.950193603515625,-0.6967722312729805,0.594183452001214,-1.571573317401111
1683692257220164600,3.96016455078125,-0.3265290520828217,0.028800562548637387,-2.0134651440024376
1683692257230136600,3.970136474609375,-0.12326857920698821,-0.3470464279979467,-1.5594345513179897
1683692257240108800,3.98010888671875,-0.014865487633273005,-0.49974575741589067,-0.5309214515980333
1683692257250079700,3.990079833984375,0.21380992394089698,-0.6108861649990082,0.07768237461745739
1683692257260051700,4.0000517578125,0.6122305653452873,-0.3793950384169817,0.2442747664399445
1683692257270022700,4.010022705078125,0.05513791332151741,-0.27836510595977304,0.08782916316576302
1683692257279994600,4.01999462890625,0.02300089982654899,-0.25958091051280496,-0.5699906024437398
1683692257289965600,4.029965576171875,0.2637047124445438,-0.23369243601858614,-0.9459747364386916
1683692257299937800,4.039937744140625,0.05481646281480789,-0.1649801343202591,-1.0854232468783855
1683692257309909500,4.049909423828125,0.0007353650698438286,-0.066998483517766,-1.09895704751648
1683692257319880700,4.059880615234375,0.2596305948734283,-0.019824644410610198,-1.0392958480842411
1683692257329852700,4.069852783203125,0.4888695586144924,0.05564706842005253,-0.9155186617679894
1683692257339823600,4.07982373046875,0.5215934686193242,0.11209259374141692,-0.6841458278033882
1683692257349795600,4.089795654296875,0.5185574619242921,0.1957014357984066,-0.4972790019761771
1683692257359766800,4.099766845703125,0.5105635405609383,0.2853378675818443,-0.367940966662392
1683692257369738500,4.109738525390625,0.5771054028850049,0.30508944675624367,-0.2917532875820994
1683692257379710700,4.119710693359375,0.5620049009194598,0.27520108897089957,-0.36067550570406015
1683692257389681700,4.129681640625,0.507771790950559,0.2266010164529085,-0.5399425240520388
1683692257399653600,4.139653564453125,0.4680535285463556,0.14691197818815707,-0.6729927117567509
1683692257409624600,4.14962451171875,0.3637093569746241,0.07889525753855704,-0.6390601931471377
1683692257419596800,4.1595966796875,0.17798107019066808,-0.01235094752907753,-0.5058016964539885
1683692257429567500,4.1695673828125,0.018092084996961057,-0.09617547816336154,-0.37278036951757965
1683692257439539700,4.179539794921875,0.027505262041091917,-0.115792617303133,-0.2506922322668135
1683692257449511700,4.18951171875,0.08741174147129058,-0.10299275696277618,-0.1277823303043842
1683692257459482600,4.199482666015625,0.11974866145253181,-0.07320142981112003,-0.05326631076335907
1683692257469454800,4.209454833984375,0.10294953887555748,-0.05966624093353748,-0.014067396058142185
1683692257479425800,4.21942578125,0.017898060262203214,-0.049099838733673094,-0.017557430130988358
1683692257489397800,4.229397705078125,-0.07910334733128548,-0.07702595653533935,-0.02429199908301234
1683692257499368700,4.23936865234375,-0.1773579698562622,-0.1577472604572773,-0.044519379075616594
1683692257509340700,4.249340576171875,-0.30935704107284545,-0.22669220186769962,-0.06420724536404013
1683692257519312600,4.259312744140625,-0.36151162773463874,-0.2219873851776123,-0.05740267991572618
1683692257529283800,4.269283935546875,-0.3176327385196462,-0.18174597568213938,-0.057273500578105443
1683692257539255600,4.279255615234375,-0.26827446804549543,-0.11105798999667167,-0.05581424168050289
1683692257549226800,4.289226806640625,-0.3076338705420494,-0.1007563762128353,-0.03257555104270577
1683692257559198700,4.29919873046875,-0.3718237263798713,-0.11460428430140018,0.01691650187894702
1683692257569169700,4.309169677734375,-0.4280056688616052,-0.11654781958460807,0.11775894894003867
1683692257579141600,4.3191416015625,-0.43770865916516627,-0.11414718818366527,0.2174791139729321
1683692257589113600,4.329113525390625,-0.37625436577107757,-0.09538111291527747,0.3166694099128246
1683692257599084500,4.33908447265625,-0.3054115548500791,-0.08687222776710987,0.38057555343843996
1683692257609056800,4.349056884765625,-0.2473065718838945,-0.05802607251107692,0.3765378223549574
1683692257619027700,4.35902783203125,-0.17786179119255394,-0.01695464193224907,0.3333830826960504
1683692257628999700,4.368999755859375,-0.1809867182800546,0.006994388931989669,0.2949084636773914
1683692257638970600,4.378970703125,-0.2568505722334608,-0.003551555001735687,0.26884967411756516
1683692257648942600,4.388942626953125,-0.3143628865361214,-0.01134790796637535,0.3133957950696349
1683692257658914600,4.39891455078125,-0.31461423094868657,-0.03450549619197845,0.40652869066670533
1683692257668885800,4.4088857421875,-0.26194413251280785,0.026398177582025527,0.4940070676334202
1683692257678857500,4.418857421875,-0.18164836052656172,0.09301847543716431,0.5523860452353954
1683692257688828700,4.42882861328125,-0.18940147713767364,0.11449965488314628,0.5103296222072095
1683692257698800600,4.438800537109375,-0.19591537081003188,0.12084463999569416,0.4363464674338698
1683692257708771600,4.448771484375,-0.22976382786538452,0.09881167188584804,0.30669637049622833
1683692257718743600,4.45874365234375,-0.2929471735417843,0.08189151674509047,0.1941965841934085
1683692257728714800,4.46871484375,-0.3092646500816569,0.08059563171565533,0.16307904993928968
1683692257738686500,4.4786865234375,-0.26045356516148893,0.09348083225190638,0.14615465701483188
1683692257748658700,4.48865869140625,-0.1684439745059237,0.12012918520271777,0.17886698617972432
1683692257758629600,4.498629638671875,-0.08966448883414269,0.13222235857844353,0.2056982214167714
1683692257768601600,4.5086015625,-0.09608955344557761,0.13423486744463442,0.23173078055679797
1683692257778572500,4.518572509765625,-0.15099252550005912,0.10357903241813182,0.26216215917766095
1683692257788544800,4.528544677734375,-0.18710194975733757,0.09770809455811977,0.31038945286050434
1683692257798515500,4.538515380859375,-0.18913142802463842,0.08716156610250472,0.3250334066975862
1683692257808487700,4.54848779296875,-0.14189736489653587,0.12084756260514258,0.3113780255064368
1683692257818459600,4.558459716796875,-0.08068740165233612,0.14295593403875828,0.27301439258158205
1683692257828430600,4.5684306640625,-0.050727165940869595,0.13935060302317143,0.22885091427154838
1683692257838402800,4.57840283203125,-0.05473700437042862,0.12307283743917942,0.24671923698261378
1683692257848373800,4.588373779296875,-0.039042573366034776,0.06969312942922115,0.29613961290754376
1683692257858345700,4.598345703125,-0.05589317040191963,-0.004348258337378502,0.3307456468645483
1683692257868316700,4.608316650390625,-0.05624737240076065,-0.0443634578615427,0.3504036294713616
1683692257878288600,4.61828857421875,-0.04485272094951942,-0.03847673791050911,0.3240631003607064
1683692257888260600,4.628260498046875,0.0027729718446731564,-0.01270341422855854,0.2959261893525719
1683692257898231800,4.638231689453125,-0.002616319978237152,0.005907178217172623,0.22650398581922052
1683692257908203500,4.64820361328125,-0.016492906172014772,-0.018574352088570594,0.1612416784442961
1683692257918174700,4.6581748046875,-0.007762468961346894,-0.027105449068546294,0.14406630643345414
1683692257928146700,4.668146728515625,0.03415476479185745,0.0009317278921604156,0.13415778362043201
1683692257938117600,4.67811767578125,0.05787353056417778,0.04967500827312469,0.07654482195489108
1683692257948089600,4.688089599609375,0.056607437884807585,0.07293079617619513,0.0336059170037508
1683692257958061600,4.6980615234375,0.10610707132471725,0.09254092105329036,0.03316555282510817
1683692257968032300,4.7080322265625,0.13913957235468552,0.054690206086635586,0.0009741787943989038
1683692257978004500,4.71800439453125,0.09392099550114943,0.010253098466992377,-0.05112498788572847
1683692257987975400,4.727975341796875,0.06518937000287696,0.014226093751192092,-0.06669679715745151
1683692257997947400,4.737947509765625,0.04950547865880653,0.051554830670356745,-0.030283713778480884
1683692258007918300,4.74791845703125,0.04635609298348427,0.10444763194620608,0.09181085321307182
1683692258017890600,4.757890625,0.03629181335316971,0.0663052405565977,0.22291144121997056
1683692258027862500,4.767862548828125,0.021124602826964108,-0.0538923337072134,0.3095228260938078
1683692258037833500,4.77783349609375,0.05316343491077423,-0.13240706749558448,0.32158903839737174
1683692258047805400,4.787805419921875,0.04374561822414398,-0.11549743374884128,0.24175708453059194
1683692258057776400,4.7977763671875,-0.06630233621345832,-0.15703823540508746,0.12004976329095661
1683692258067748600,4.80774853515625,-0.2091091806377284,-0.25597733306288717,-0.02306852170266211
1683692258077719600,4.817719482421875,-0.3479869237184524,-0.3963414970427751,-0.22150223200917243
1683692258087691500,4.82769140625,-0.4135141656398773,-0.4281839115053415,-0.45032713505662975
1683692258097662500,4.837662353515625,-0.3747264620840549,-0.1812830343455076,-0.6841589064806699
1683692258107634400,4.847634521484375,-0.3423275827825069,0.22162731969356536,-0.8618672972097993
1683692258117606400,4.8576064453125,-0.3977753292381763,0.4804910218477249,-0.8579889944717287
1683692258127577600,4.86757763671875,-0.43711248337030406,0.4971399588316679,-0.6973367332879453
1683692258137549300,4.87754931640625,-0.4144295269191265,0.30024551385641096,-0.35690493765678255
1683692258147520500,4.8875205078125,-0.309089330047369,-0.02789455361962318,0.07577040351629256
1683692258157492500,4.897492431640625,-0.31888708596229554,-0.18761223736703395,0.5310799666279926
1683692258167463400,4.90746337890625,-0.2669651755452156,-0.049965515652298925,1.0336430830195547
1683692258177435400,4.917435302734375,-0.5847077676475048,0.3097662063956261,1.397463827946782
1683692258187407600,4.92740771484375,-0.8757727807044983,0.515759903627634,1.6394769330650567
1683692258197378300,4.93737841796875,-1.1498445733845233,0.39722061796486374,1.794277618676424
1683692258207350500,4.9473505859375,-1.2920505658388137,0.15839491071105002,1.9573899132981896
1683692258217321500,4.957321533203125,-0.9516425529420375,0.06938450187146664,2.266358539575338
1683692258227293400,4.96729345703125,-0.7750760257244109,0.14730536141991615,2.4565751142218706
1683692258237264400,4.977264404296875,-1.0015572151899337,0.42261517146229743,2.49650614259392
1683692258247236600,4.987236572265625,-1.3892343442618846,0.7404922035992145,2.529360364447534
1683692258257208300,4.997208251953125,-1.7788322122633455,0.9932868149727583,2.6921725070789453
1683692258267179500,5.007179443359375,-2.279490408349037,1.1380775632232427,2.9505305977985263
1683692258277151200,5.017151123046875,-2.6655402284801006,1.2793377992600201,3.280243029157817
1683692258287122400,5.027122314453125,-2.93078223349452,1.2726380093604326,3.623615152557194
1683692258297094400,5.037094482421875,-3.004323270523548,1.1548515878915786,3.91253029410392
1683692258307065600,5.047065673828125,-2.994893763399124,1.0584697735011577,4.053732370212674
1683692258317037300,5.057037353515625,-2.9533833568811416,1.181076746994257,4.143581567963958
1683692258327008500,5.067008544921875,-2.784776848757267,1.4638053088605403,4.202903525504469
1683692258336980200,5.076980224609375,-2.5011118828237056,1.81963067111969,4.30719333654046
1683692258346952400,5.086952392578125,-2.270244587228447,1.9125719896674156,4.433063695743679
1683692258356923400,5.09692333984375,-1.9374153390228748,1.5799088918089865,4.486787979407608
1683692258366895400,5.106895263671875,-1.4900456655323504,0.7360726335912943,4.3547973837584255
1683692258376866300,5.1168662109375,-0.8895674973011016,-0.5157873761564493,3.9443861525699493
1683692258386838500,5.126838623046875,-0.4701636891007423,-1.996509333026409,3.2042695042848583
1683692258396809200,5.136809326171875,-0.7935515936136245,-3.503434237167239,2.2237552232541145
1683692258406781400,5.146781494140625,-1.7205378442049026,-4.808605565863847,1.1614398802407084
1683692258416752400,5.15675244140625,-2.456672144855559,-5.946331246909499,0.021403438034653662
1683692258426724400,5.166724365234375,-1.817046353714913,-6.800875361624359,-0.754553462177515
1683692258436696600,5.176696533203125,0.09353431600481271,-7.207909517595171,-1.3575009431317449
1683692258446667500,5.18666748046875,2.1831097630023955,-8.326703703677653,-2.0450661509245633
1683692258456639500,5.196639404296875,4.18445776823163,-9.707896195781231,-2.3131956940740346
1683692258466610400,5.2066103515625,6.194127027082443,-10.26946858703494,-2.5481118266686797
1683692258476582400,5.21658251953125,6.514145747423171,-10.238138213747739,-3.4319533475384114
1683692258486553300,5.22655322265625,4.29743035967797,-10.56419738329649,-4.368691469076276
1683692258496525600,5.236525634765625,1.4273629993870853,-11.644508401727675,-4.922591426005959
1683692258506496500,5.24649658203125,0.8961831160485744,-13.341429223501681,-4.53124729885906
1683692258516468500,5.256468505859375,1.9100433479726313,-14.817046550709009,-2.602794141709804
1683692258526440400,5.2664404296875,0.6531935671135782,-14.499317987132072,0.8263090770944952
1683692258536411600,5.27641162109375,-2.6470038703143595,-11.760683296346663,3.8166535066261886
1683692258546383400,5.28638330078125,-3.2405028471827504,-7.677412112438678,5.12712557207942
1683692258556354600,5.2963544921875,-2.48540957904011,-3.3489977086931466,3.4779850308731195
1683692258566326300,5.306326171875,-2.3600199890911577,-0.1391676476716995,-1.5969740083783863
1683692258576297500,5.31629736328125,0.8359151098296046,3.443977839592099,-4.683603806188702
1683692258586269400,5.32626953125,6.184364342480897,6.342614291763305,-7.276478611430526
1683692258596240600,5.33624072265625,9.367005367803573,9.307076092019676,-11.439898852330446
1683692258606212400,5.34621240234375,5.140589449286461,11.17899750686884,-13.318093940621614
1683692258616184600,5.3561845703125,-1.8712018684029579,11.022626210939883,-11.64880931379199
1683692258626155300,5.3661552734375,-4.105694904901087,8.407056174287199,-6.556613016274571
1683692258636127500,5.37612744140625,-2.467633391591906,4.70063560501039,-0.31026305000185966
1683692258646098400,5.386098388671875,0.9834656781822443,2.447868952935934,4.557848013275861
1683692258656070400,5.3960703125,3.177375067618489,1.4128683178275823,7.892524351149797
1683692258666041300,5.406041259765625,3.2720994701907036,0.548283870613575,8.610437058672309
1683692258676013600,5.416013671875,2.9369542001277207,-0.669007514578104,5.451819883015752
1683692258685984300,5.425984375,3.100328068295121,-1.133936810156703,0.07789104893207549
1683692258695956500,5.43595654296875,2.4139333655864,-0.6497802515387535,-4.224607992312312
1683692258705927400,5.445927490234375,2.0499799341902136,0.8110884193480015,-6.779047560697793
1683692258715899400,5.4558994140625,2.112394012527168,3.034814854899049,-7.833120560544729
1683692258725871400,5.465871337890625,1.6070818531557918,5.060827345785499,-7.482153159710764
1683692258735842600,5.475842529296875,0.6579109510242939,6.30761779718399,-6.4871858443051575
1683692258745814300,5.485814208984375,0.495533984939754,6.855647400775552,-5.243049122285843
1683692258755785500,5.495785400390625,1.1558216019675136,6.6033133926510805,-4.1413802585273976
1683692258765757400,5.50575732421875,1.9495465063214301,5.641832167261839,-3.290480053272843
1683692258775728400,5.515728271484375,3.1800951402321456,4.316913935565948,-3.046028322830796
1683692258785700600,5.52570068359375,3.6415713727474213,2.8350398860514163,-3.8102620520234107
1683692258795671600,5.535671630859375,3.9201112507522105,1.569471668946743,-5.463175974288583
1683692258805643500,5.5456435546875,3.939659708569944,0.9152934747099876,-7.200590134492516
1683692258815615500,5.555615478515625,4.200952099175751,1.088859651067853,-8.584899297311901
1683692258825586400,5.56558642578125,4.806538404200971,1.9793296501666306,-9.563809211885928
1683692258835558400,5.575558349609375,5.382710106432437,3.1780379154413936,-10.066869792938231
1683692258845529600,5.585529541015625,6.335901642382145,4.534254371720552,-10.186194091498852
1683692258855501300,5.595501220703125,6.956838076752424,5.978139174580574,-9.997547834908962
1683692258865472500,5.605472412109375,7.085867776769399,7.240328270640969,-9.508053422394394
1683692258875444500,5.615444580078125,7.3669164227247235,8.377011749157308,-9.245247120094298
1683692258885415700,5.625415771484375,6.92846070805192,9.499451598265766,-8.98906754245758
1683692258895387400,5.635387451171875,6.349678823322058,10.583653778916597,-8.349436929011345
1683692258905358600,5.645358642578125,5.09922400419712,11.415670420002936,-7.605044210842252
1683692258915330300,5.655330322265625,3.0626430652841923,12.14294190750122,-7.201725860524177
1683692258925302500,5.665302490234375,1.7140015743039547,12.468643349653481,-6.589923165202141
1683692258935273500,5.6752734375,-0.3197147689580917,11.732990987300871,-5.607954447579384
1683692258945245400,5.685245361328125,-2.025987648706138,10.949444070351124,-3.706371469438076
1683692258955217400,5.695217529296875,-2.4246610958278176,10.908653794801234,-1.4958976064309477
1683692258965189000,5.705189208984375,-4.61613185994029,10.318252783948182,-0.3192110572196543
1683692258975160300,5.715160400390625,-5.852880809795856,10.063153402763605,0.06890051774680614
1683692258985132300,5.72513232421875,-3.9484336743950843,9.103839584541321,0.1291230773888528
1683692258995103200,5.735103271484375,-2.0829905156493185,4.134585776081681,-0.7972435799993575
1683692259005075200,5.7450751953125,-3.4219618226170536,-2.248462232878804,-1.9414497091054914
1683692259015046400,5.75504638671875,-4.267683163928985,-6.750095606979728,-1.109050571507588
1683692259025018000,5.76501806640625,-1.1580571059346199,-10.149476764476299,1.08523766117841
1683692259034990300,5.774990234375,4.643272380322218,-11.999279286497831,4.019320105262101
1683692259044961300,5.784961181640625,5.711414822053909,-10.101920063531399,6.535919187813997
1683692259054933200,5.794933349609375,3.8238895953595637,-6.342644686901569,7.47072751033306
1683692259064904200,5.804904296875,0.315408011674881,-4.530879342329502,6.31341800789535
1683692259074876400,5.81487646484375,-4.539049789303541,-5.162326649320125,3.902911109626293
1683692259084847000,5.82484716796875,-7.690914568090438,-7.155178044360875,1.8150506498530505
1683692259094819300,5.8348193359375,-7.55249043226242,-9.067910777547954,0.2595885092973709
1683692259104790300,5.844790283203125,-4.983886144924163,-10.621260748255253,-0.7081590830102562
1683692259114762200,5.85476220703125,-2.5462708749771115,-12.026558923089503,-0.78191770831272
1683692259124734500,5.864734375,-0.7772669598974287,-13.010753500068187,-0.03401712815314531
1683692259134705400,5.874705322265625,0.6350406553074717,-13.605029891049861,0.929659707584232
1683692259144677400,5.884677490234375,0.42453474134802816,-13.302179747653007,1.6325925803788006
1683692259154648300,5.8946484375,-0.7470642754659056,-12.620828299808501,1.4976352438785134
1683692259164620300,5.904620361328125,-1.8777333159983156,-11.8067190713346,0.6282726224772631
1683692259174591200,5.91459130859375,-2.4085107560157772,-10.654881278306245,0.2575533502079546
1683692259184563500,5.9245634765625,-3.26357392616868,-9.623526890745758,0.8068398219928145
1683692259194534400,5.934534423828125,-4.540003729027509,-8.895511306881904,1.5541133562952278
1683692259204506400,5.94450634765625,-5.323702621668577,-8.565584940510988,1.899887280139327
1683692259214477300,5.954477294921875,-4.932920512318611,-8.670456350827216,1.7161076066724954
1683692259224449300,5.96444921875,-3.7765070819377895,-8.87802358098626,1.3414274679481983
1683692259234420200,5.974420166015625,-2.396325812703371,-9.04141907646358,1.1436546327032149
1683692259244392400,5.984392333984375,-0.9900362887442111,-9.206144359239936,1.2956849768184124
1683692259254364200,5.9943642578125,0.9414688033215701,-9.340698375636338,1.7816050379775463
1683692259264335400,6.00433544921875,3.762031981861591,-9.45972106090188,2.5982377935796976
1683692259274307300,6.014307373046875,6.017618952053785,-9.55738882344961,3.7707720454171296
1683692259284278300,6.0242783203125,5.269774632126093,-9.581570494025945,4.794264321300387
1683692259294250200,6.034250244140625,2.0181271444641053,-9.680286888843774,5.30368566955626
1683692259304221400,6.044221435546875,-0.8473103640690446,-10.40306106492281,5.319592263740301
1683692259314193200,6.054193115234375,-2.3860699377574024,-11.493049427759647,5.0397091544330115
1683692259324164400,6.064164306640625,-2.9024177242755886,-12.338707640707492,5.009935947459936
1683692259334136300,6.07413623046875,-3.3708874689400194,-12.70151102528572,5.193004696178436
1683692259344107300,6.084107177734375,-4.095526562108099,-12.665207539761065,5.356057077306509
1683692259354079200,6.094079345703125,-4.662302074962854,-12.260263634067773,5.298819524824619
1683692259364051500,6.104051513671875,-4.697625901800394,-11.294170530968904,4.744447274208069
1683692259374022100,6.114022216796875,-3.8143151268064974,-9.714346394833921,3.3771406841158864
1683692259383994400,6.123994384765625,-2.173353946533054,-8.099084450092912,1.6593853102363645
1683692259393965300,6.13396533203125,-0.6386779888965189,-7.28765876161456,0.10545520155355334
1683692259403937300,6.143937255859375,-0.08300912259817123,-7.12270025460422,-1.547185748989135
1683692259413908200,6.153908203125,-0.7358454007066786,-7.366549342978,-3.1382313902318475
1683692259423880400,6.16388037109375,-2.417070494568348,-7.88069421262443,-4.412761496949195
1683692259433851100,6.17385107421875,-4.2941187509119505,-8.709017844411731,-5.13585365293622
1683692259443823400,6.1838232421875,-4.95985294290781,-9.752903796765208,-5.045924960207939
1683692259453794300,6.193794189453125,-4.028340154802799,-10.422386527639627,-3.693950379282236
1683692259463766300,6.203766357421875,-3.3526293431937693,-10.100940404844284,-1.7245523405432701
1683692259473738500,6.213738525390625,-4.098463784603775,-8.584095579713582,0.4236331163331866
1683692259483709400,6.22370947265625,-4.795048165154457,-6.644946548765898,2.1499999589525163
1683692259493681400,6.233681396484375,-4.482118526291847,-4.680891624620557,3.458461707496643
1683692259503652400,6.24365234375,-3.1184137600839135,-2.1774030757933853,4.974426242661476
1683692259513624300,6.253624267578125,-0.45172786870002746,0.8695446999698877,6.3121969416677945
1683692259523595300,6.26359521484375,2.209091760998964,4.443783827200532,6.961566274318098
1683692259533567500,6.2735673828125,13.379006966745852,9.749245274257659,7.094658985990286
1683692259543538400,6.283538330078125,23.88991933457851,16.17707701231837,6.902758111518621
1683692259553510400,6.293510498046875,2.1302052712887525,20.43744313123226,7.32889561188817
1683692259563481300,6.3034814453125,-11.776276002275942,24.154726455307006,5.549478877735138
1683692259573453300,6.313453369140625,-7.740703558132052,26.045844153535363,1.034007824678719
1683692259583424300,6.32342431640625,14.69859552785158,22.99772148877382,-3.38550811496675
1683692259593396500,6.333396484375,7.705742719388008,11.824779628682135,-3.157797091445327
1683692259603367400,6.343367431640625,-4.449840058499574,5.684786342847347,0.2760012994378805
1683692259613339400,6.35333935546875,-0.6721770845249295,5.130546778699755,0.18427169476747512
1683692259623311400,6.363311279296875,1.0122112956732512,2.795578813278675,-2.854479330536723
1683692259633282300,6.3732822265625,0.8237412724331021,0.775079532855749,-6.429441511344909
1683692259643254300,6.383254150390625,2.566151341228187,0.5840232925146818,-9.305753903505206
1683692259653225500,6.3932255859375,2.9068177128002044,1.1851204694271087,-12.667894002366065
1683692259663197200,6.403197265625,3.3337419796332717,0.9859227159455418,-16.827804189318417
1683692259673168400,6.41316845703125,2.4547888153269883,-0.8071195157170296,-19.054718022733926
1683692259683140400,6.423140380859375,1.2979866778895257,-2.304686516664922,-14.98465352640152
1683692259693111300,6.433111328125,2.12590143661499,-2.090644829794764,-6.132785546413063
1683692259703083300,6.443083251953125,3.6502898089930413,-1.4324357726067303,0.7084644956976175
1683692259713054500,6.453054443359375,5.989713877040147,-1.1741077847644685,5.27270717844665
1683692259723026200,6.463026123046875,4.363196378791332,-0.4526230639740824,7.415644505536556
1683692259732997400,6.472997314453125,2.2850942197054622,0.5840478424340486,4.09105935356617
1683692259742969300,6.48296923828125,2.376346269991994,1.1684972514063119,-4.063142588114738
1683692259752940500,6.4929404296875,1.996505825895071,1.2805138573020696,-10.441899037361145
1683692259762912300,6.502912353515625,2.1585084057092665,0.861781957013905,-13.585380603206158
1683692259772884500,6.512884521484375,2.191652550420165,0.6715963620275258,-12.757290780174731
1683692259782855200,6.522855224609375,1.0217574149146675,1.1213260426476597,-7.816279315859079
1683692259792827400,6.532827392578125,0.7059791086226701,0.8561462892144918,-3.5431951696693895
1683692259802798300,6.54279833984375,1.8861895941764115,0.06416004522144794,-0.9915402635663747
1683692259812770300,6.552770263671875,1.9184519876167176,-0.4271805796816945,0.9013841918230057
1683692259822741200,6.5627412109375,2.8275404702067375,-0.15800883400291205,1.3205933542340993
1683692259832713500,6.57271337890625,3.485158575764298,0.22242753016054628,-1.5764941149294376
1683692259842684200,6.58268408203125,2.852649192500114,0.8150111457496881,-4.385597595691681
1683692259852656400,6.592656494140625,2.2184107934862376,1.204064823871851,-5.780425814437866
1683692259862627300,6.60262744140625,1.924643243472278,1.2600997225657105,-6.402070689338445
1683692259872599300,6.612599365234375,2.1395307335168123,1.2606570641875265,-6.481614181652665
1683692259882570200,6.6225703125,1.9039990993723273,1.388155609114468,-6.5286296153277155
1683692259892542500,6.63254248046875,1.1619687264204024,1.4089175343751907,-6.280372647383809
1683692259902513200,6.64251318359375,0.6258563551157713,1.5478759232103825,-5.336019666928053
1683692259912485400,6.6524853515625,0.7178226911514997,1.436349438919127,-4.103476936590671
1683692259922457300,6.662457275390625,1.2262100201845167,1.166898584038019,-2.9054309346169234
1683692259932428300,6.67242822265625,1.5707912271127105,0.871664760863781,-2.0100199719846246
1683692259942400300,6.682400146484375,1.5656699385762214,0.9271925868183374,-1.5483546466380358
1683692259952369700,6.69236962890625,1.438710322831571,1.171277822035551,-1.605980906176567
1683692259962342000,6.702341796875,1.495861658334732,1.4142045348674057,-1.916849520856142
1683692259972312600,6.7123125,1.39017542450428,1.838860272246599,-2.270157931858301
1683692259982284800,6.722284912109375,0.972833809530735,2.181598189395666,-2.415551906698942
1683692259992255700,6.732255859375,0.791066498799622,2.6389380527585744,-2.4314514866203067
1683692260002227700,6.742227783203125,0.6433864588484167,2.889182979649305,-2.5031243916898966
1683692260012198700,6.75219873046875,0.8937009438440203,2.9034271935790774,-2.4961247420608994
1683692260022171000,6.7621708984375,0.6183984403252601,2.8450077378362417,-2.44440682978332
1683692260032141600,6.7721416015625,0.4325368460178375,2.694278831708431,-2.466440382415056
1683692260042113800,6.78211376953125,0.20719109032303093,2.732300227066874,-2.681605812618136
1683692260052084700,6.792084716796875,-0.4940452076867223,2.6972902884840964,-2.919085365960002
1683692260062056700,6.802056640625,-0.6067597327187657,2.760827817893028,-2.9089538480460644
1683692260072029000,6.81202880859375,-0.986618004733324,2.9993226857572792,-2.6589117502510544
1683692260082000000,6.821999755859375,-1.0379897339217363,3.294267755118012,-2.058669728863239
1683692260091971800,6.831971923828125,-0.8367701192237437,3.659973290878534,-0.9767816703736781
1683692260101942800,6.84194287109375,-0.9861281753897666,3.8551311213195323,0.29338907209038734
1683692260111914800,6.851914794921875,-1.2880503902867435,3.6824721229344606,1.6345575968414545
1683692260121885700,6.8618857421875,-1.6360991271950303,3.0989246312379835,2.7775656022042035
1683692260131858000,6.87185791015625,-1.7580290782094001,2.1185499048084018,3.635990942266583
1683692260141828900,6.881828857421875,-1.5886650297164917,0.9027157326877117,3.9808956820607184
1683692260151800800,6.89180078125,-1.186696048180759,-0.5981564472854137,3.6042388364359734
1683692260161771800,6.901771728515625,-0.8365469779923558,-2.3456711457431316,2.387629296028614
1683692260171743700,6.91174365234375,-0.6239908535048365,-4.214536680153012,0.9319687151789665
1683692260181714700,6.921714599609375,-0.6195347508788108,-6.051891224011778,-0.25011077911704777
1683692260191687000,6.93168701171875,-0.7594166842997073,-7.569990433117747,-0.9959618794009089
1683692260201657900,6.941657958984375,-1.205694470900297,-8.92381327225864,-1.2097937229126692
1683692260211629800,6.9516298828125,-1.437379512619227,-10.13119642689824,-0.9279512962311506
1683692260221600800,6.961600830078125,-1.0354171069547533,-11.160613124394416,-0.36357144634127614
1683692260231573000,6.971572998046875,-0.6153098266601562,-11.83217733771801,0.6048030456930399
1683692260241544700,6.981544677734375,-0.3272283594585955,-12.337770067596434,1.6564055637732147
1683692260251516000,6.991515869140625,0.10424509511142968,-12.972855438828468,2.499540395723283
1683692260261487600,7.001487548828125,0.2460159110188484,-13.44287182841301,3.240923702943325
1683692260271458800,7.011458740234375,-0.1548904097214341,-13.762415916979313,3.803885210467875
1683692260281430800,7.0214306640625,-0.8551020408585667,-13.933360512661933,4.249358402687311
1683692260291402000,7.031402099609375,-1.4886043806828557,-13.999086492025851,4.42418539276123
1683692260301373700,7.041373779296875,-1.412044434224069,-14.182048857760428,4.464251737950742
1683692260311345000,7.051344970703125,-1.2010745560146867,-13.99758076363802,4.428719821320474
1683692260321316600,7.061316650390625,-0.7793664163947105,-11.87214226835966,4.54363945518136
1683692260331287800,7.071287841796875,-0.07881240156069398,-9.000995880660414,3.973613416098058
1683692260341259800,7.081259765625,0.5056019360981882,-7.099093753567337,3.4456761679425836
1683692260351231000,7.09123095703125,0.4810473405562341,-5.186577293479442,2.959926494914293
1683692260361202700,7.10120263671875,0.0802795515038073,-2.4337837289601563,2.4295421458676456
1683692260371174000,7.111173828125,0.2995756517708301,2.331983396652341,1.999854405670613
1683692260381145600,7.1211455078125,1.6730371112309395,10.557398224675655,1.4334468493454158
1683692260391116800,7.13111669921875,0.46517903255596754,16.749832476365565,-0.07297142044752836
1683692260401088800,7.1410888671875,-4.64824899969101,19.797611442255974,-2.4431591678097844
1683692260411060000,7.15106005859375,-4.649266067779064,21.453005490899084,-5.702227306991815
1683692260421031700,7.16103173828125,1.80474757476449,18.19537264521718,-10.649529395884274
1683692260431003000,7.1710029296875,4.795878186237812,10.290444739568233,-14.13568107433915
1683692260440974600,7.180974609375,1.0613748472929,3.215887461364269,-11.8590875564754
1683692260450945800,7.19094580078125,-1.3567057011008261,0.5344856468856335,-6.45941111767292
1683692260460917800,7.200917724609375,-0.09946589801087975,-0.3164963914334774,-1.9172396892175076
1683692260470889700,7.2108896484375,0.5792609004184603,0.21043431002795696,2.065350229540467
1683692260480860700,7.220860595703125,-0.6055753452397883,1.648152406951785,5.44971618873477
1683692260490833000,7.2308330078125,-2.2666170443810523,4.282483842697739,7.53710347803831
1683692260500803600,7.240803466796875,-2.955247104926407,8.531614281848073,7.853013009494543
1683692260510775800,7.25077587890625,-2.630652454972267,12.215108149045705,5.522989514738321
1683692260520746800,7.260746826171875,-1.3994833510756493,12.927163362711667,1.1096847046926617
1683692260530718700,7.27071875,-0.0006371288597583771,8.777199400234222,-3.7319311503693458
1683692260540689700,7.280689697265625,1.0118003767848014,3.478501455962658,-7.270652681756019
1683692260550662000,7.290661865234375,1.6232278090536594,-0.4332020319283008,-8.279891683620214
1683692260560632800,7.3006328125,1.350794869621843,-2.9623019918739795,-6.011347032177448
1683692260570604800,7.310604736328125,0.6785970345698297,-3.8959722502738234,-2.121596286766976
1683692260580575700,7.32057568359375,0.3848283155120909,-4.012497858026624,1.4704314490020274
1683692260590547700,7.330547607421875,0.3156825908325612,-3.8921751960784197,4.4824669013381
1683692260600518700,7.3405185546875,0.6349918477296829,-3.6542560822755097,6.8001429556965824
1683692260610491000,7.350490966796875,0.7845721683442592,-3.2883716828167437,8.31531429465711
1683692260620461800,7.3604619140625,0.5773696798443794,-2.8256746763348577,9.034362728211283
1683692260630433800,7.370433837890625,0.020758856520801783,-2.568751002332568,9.005065322056412
1683692260640404700,7.38040478515625,-0.19835648035183548,-2.828006918674707,8.297496313893795
1683692260650376700,7.390376708984375,-0.7813269028127193,-3.790022397071123,6.383159652641416
1683692260660347600,7.40034765625,-2.3400563746012746,-4.921409522745013,4.0681788287162775
1683692260670319900,7.41031982421875,-3.8249931726872917,-5.828772204455733,2.500102413520217
1683692260680290800,7.420290771484375,-4.556478478488326,-6.661532357385754,1.5828345699973403
1683692260690262800,7.4302626953125,-4.3791924048244955,-7.512275910773873,1.0677964047729969
1683692260700235000,7.440235107421875,-3.366505308333039,-8.421739364156126,0.842807499691844
1683692260710205700,7.450205810546875,-1.8963142439581453,-9.418160385501384,0.8076056917987764
1683692260720178000,7.460177978515625,-0.5794175522848963,-10.374424168503284,0.9103250386476516
1683692260730148900,7.47014892578125,0.10112184852436185,-11.207152757251261,1.137763674968481
1683692260740120800,7.480120849609375,-0.19567834718376398,-11.704674408876896,1.3554931104406713
1683692260750091800,7.490091796875,-1.0421347247719763,-11.735036813914775,1.4455039284944533
1683692260760064000,7.50006396484375,-1.8059984516084193,-11.310171233177185,1.3300316291868686
1683692260770034700,7.51003466796875,-2.485038699901104,-10.604296753972768,0.7960691293925046
1683692260780007000,7.5200068359375,-2.9301591331601142,-9.744459793546795,-0.02684942848086357
1683692260789977900,7.529977783203125,-2.3928823942512274,-8.690084595882892,-0.982761037044227
1683692260799949800,7.53994970703125,-1.2908888285830615,-7.178360767027735,-2.121680896310508
1683692260809920800,7.549920654296875,1.5956269776836036,-4.790090835008025,-3.533677107478678
1683692260819893000,7.55989306640625,5.069544320726394,-1.565991425615549,-4.971977095943689
1683692260829863700,7.56986376953125,5.342095187449455,1.6828765143305062,-5.9928691262006755
1683692260839836000,7.5798359375,5.524813223034143,4.176351618665456,-5.5826580937594175
1683692260849806800,7.589806884765625,2.3866689265638588,6.558202915814519,-2.794423798024654
1683692260859778800,7.59977880859375,-4.665644078867137,8.463394732102751,0.556952330237627
1683692260869749800,7.609749755859375,-5.787760395109653,9.361182360738516,2.466033555179834
1683692260879722000,7.619721923828125,-0.6363815485224127,7.670929180160164,2.048660960546136
1683692260889692700,7.629692626953125,2.970415740224719,3.9799779826939106,1.315925946944952
1683692260899665000,7.639664794921875,4.650984854395687,1.5369091235160828,1.3336252697646618
1683692260909635800,7.6496357421875,2.7343831708207724,1.2725602679491042,0.34264322460293767
1683692260919607800,7.65960791015625,0.44197424418777226,2.3764386244505644,-2.6455156775832176
1683692260929578800,7.669578857421875,0.8518176123604178,4.5655771462231876,-6.7928270797252654
1683692260939551000,7.679551025390625,2.558579736930132,6.383373587653041,-11.156586937618256
1683692260949521700,7.689521728515625,3.1792136812224983,7.20394002944231,-15.353320834577083
1683692260959494400,7.699494384765625,1.9648913749694823,7.408322784346342,-18.139203598749635
1683692260969465600,7.709465576171875,1.6694398173913358,6.595192045515775,-17.730038275969026
1683692260979437300,7.719437255859375,2.5189082362771034,5.209861138433218,-12.633049483478068
1683692260989408500,7.729408447265625,3.13167159332484,4.0324335615962745,-6.707497989746928
1683692260999380200,7.739380126953125,3.7479166550084946,3.5521184808373447,-2.5735855828821657
1683692261009351400,7.749351318359375,4.007703024965524,4.0431507704436775,0.6320604704529047
1683692261019323400,7.759323486328125,3.450325162792206,5.462683806857466,2.365944702965021
1683692261029295400,7.76929541015625,3.5027120603725312,7.593699810007214,2.11264155754745
1683692261039266300,7.779266357421875,3.358959715259075,9.267868701747059,-0.9808014274090527
1683692261049238500,7.789238525390625,3.0509488280981776,10.048342787122726,-5.383073679047823
1683692261059209500,7.79920947265625,2.580343824970722,9.984338809245823,-9.203232855707407
1683692261069181400,7.809181396484375,2.4784403245493767,9.626305707809328,-11.787501160645483
1683692261079152400,7.81915234375,2.9201895278096197,9.14235139376521,-12.91113694154024
1683692261089124400,7.829124267578125,3.5472143421828743,8.49314397367835,-12.120212189298867
1683692261099095300,7.83909521484375,2.941298951333761,7.531775561013817,-9.639818100333214
1683692261109067500,7.849067626953125,2.1715423670664427,6.401369263070821,-6.882400383144617
1683692261119038500,7.85903857421875,1.3105775716543198,5.221782462373375,-4.840577159664035
1683692261129010400,7.869010498046875,0.4991746795296669,4.145066253563762,-3.7246547296255823
1683692261138981400,7.8789814453125,0.23273528142422437,3.5788445751994846,-3.221300134062767
1683692261148953300,7.888953369140625,-0.1080371808707714,3.4549171667575833,-3.455783720459044
1683692261158924300,7.89892431640625,-0.3202688957095146,3.658957391834259,-3.972908774960041
1683692261168896500,7.908896484375,-0.4466144712090492,3.7078847966104744,-4.4374885264486075
1683692261178867500,7.918867431640625,-1.1357084960043429,2.9709178445279596,-4.625100179293751
1683692261188839400,7.92883935546875,-2.179581588876247,0.9854448693007231,-4.559119932907819
1683692261198810400,7.938810302734375,-1.9155973288379609,-1.9433973360419272,-4.082800059264898
1683692261208782300,7.9487822265625,-0.3997768783189356,-4.759284193333984,-3.1682290536105633
1683692261218753300,7.958753173828125,0.2787044209167361,-6.951971932020783,-1.971906514428556
1683692261228725500,7.9687255859375,-0.40053573386222124,-8.532873926520347,-0.39178397986888885
1683692261238696400,7.978696533203125,-1.5576152269363401,-9.522122864279151,1.5843047886803745
1683692261248668400,7.98866845703125,-1.9914064569294452,-10.069465070128441,3.5636578197225925
1683692261258639400,7.998639404296875,-1.4510101246953009,-10.719207912266254,5.289017092734575
1683692261268611300,8.008611328125,-0.7044996837198734,-11.555416744345425,6.519841328716278
1683692261278582300,8.018582275390624,-0.19796835781708358,-12.016977440273761,6.954384253859519
1683692261288554500,8.028554443359376,0.15987842726707457,-11.854285124629735,6.8814078649759285
1683692261298525400,8.038525390625,-0.23223770716562867,-11.196000079596041,6.507410301688313
1683692261308497400,8.048497314453124,-1.7321734830714761,-10.952158590006828,4.949606858703493
1683692261318468400,8.05846826171875,-2.9050083252906798,-10.91373796619773,3.1993232800543305
1683692261328440300,8.0684404296875,-3.7745442574322223,-10.776086568307877,2.5116493511900306
1683692261338411300,8.078411376953126,-4.064509200292825,-10.349088651716709,2.4978835684269667
1683692261348383500,8.088383544921875,-3.4235482150256633,-9.36285117073357,2.657905788078904
1683692261358354400,8.0983544921875,-2.0353614801205695,-8.16885590545535,2.5695932983756062
1683692261368326400,8.108326416015625,-0.7167160450838506,-7.466281636840105,1.8476703322984278
1683692261378297300,8.11829736328125,0.12276011822819709,-7.45090345044434,0.6323866336673498
1683692261388269300,8.128269287109376,0.34850144911184905,-7.871874361830949,-0.36731340934857726
1683692261398240300,8.138240234375,-0.19683307017683982,-8.736621890652179,-0.7294479547545314
1683692261408212500,8.14821240234375,-1.1560649092040955,-9.7293271063447,-0.29607948021814223
1683692261418183400,8.158183349609375,-1.7862252451241016,-10.258845486211776,0.6473077239453792
1683692261428155400,8.1681552734375,-1.9576982485949992,-10.346578714722394,1.5924650065213442
1683692261438126300,8.178126220703126,-1.8342052860476075,-10.272623836195468,2.0770647788621486
1683692261448098300,8.188098388671875,-1.827600188694149,-10.075589690488576,2.3100128262542188
1683692261458069200,8.1980693359375,-1.8631134006239474,-9.752664142790437,2.487136548963189
1683692261468041500,8.20804150390625,-1.5706244922436774,-9.418603453093766,2.7146242851227522
1683692261478012400,8.218012451171875,-1.1067024740114808,-9.063754826912284,3.0083056181579826
1683692261487984400,8.227984375,-0.9498317041277885,-8.831911818152665,3.183570999649167
1683692261497955300,8.237955322265625,-1.121089457412809,-8.734266851958632,3.063117989319563
1683692261507927300,8.24792724609375,-1.252016515483707,-8.757031641474367,2.5900445502519607
1683692261517898200,8.257898193359376,-1.114979011708498,-8.901871489563584,1.7662132614478467
1683692261527870500,8.267870361328125,-0.6680885000370442,-9.1026845692873,0.9812385036520659
1683692261537842400,8.277842529296874,-0.3755249189853668,-9.298577143743634,0.3786234695225954
1683692261547813400,8.2878134765625,-0.5154711498141289,-9.227838889175652,0.08455372169166803
1683692261557785600,8.29778564453125,-0.5099205299496651,-8.587818984150886,0.09615911155045032
1683692261567756300,8.30775634765625,0.9818073895812034,-7.024240464895963,0.0741078771315515
1683692261577728500,8.317728515625,5.32483308700323,-3.752826346620917,-0.337937238869071
1683692261587699500,8.327699462890624,11.089216113656759,1.5929513287335633,-0.9549705283209681
1683692261597670400,8.33767041015625,7.685121371641754,5.358107580095529,-0.63124856954813
1683692261607642400,8.347642333984375,2.6454461194783447,8.999151129576564,1.4038237183675168
1683692261617614600,8.357614501953124,-9.430119703364372,10.874862584358453,2.6057559141248463
1683692261627585500,8.36758544921875,-7.27822340927124,18.33403409693241,0.8293091356933117
1683692261637557500,8.3775576171875,-4.997490891906619,28.481338778066632,-3.070821695564687
1683692261647528400,8.387528564453126,9.297063816571235,32.732454253554344,-12.109253572911024
1683692261657500400,8.39750048828125,9.133241035592555,23.00421669601202,-20.09778681348562
1683692261667471400,8.407471435546874,-7.584962376800179,10.424670839184522,-20.807875695514678
1683692261677443600,8.417443603515625,-1.5168343037366867,5.731805283653736,-19.902657040095328
1683692261687414500,8.42741455078125,5.671511266210675,4.859568860381842,-13.796537966811655
1683692261697386500,8.437386474609376,4.9861552588999265,5.822050787246227,-7.198879238921403
1683692261707357400,8.447357421875,2.3776010923586783,6.778020555737614,-3.4236160195648666
1683692261717329400,8.457329345703124,0.35093174499869345,8.557213418006896,-1.4511656075179575
1683692261727300400,8.46730029296875,-0.1627449226140976,11.006038648754357,-0.9234282658487558
1683692261737272600,8.4772724609375,1.73648827753067,13.39048230048418,-1.2262348623648285
1683692261747243500,8.487243408203126,3.213097538384795,14.068399097704887,-1.3729542405903339
1683692261757215500,8.497215576171875,3.1862159611999985,11.435018094551562,-0.9961614936262368
1683692261767186400,8.5071865234375,2.979240267193317,7.6616849664747715,-0.7185153495907783
1683692261777158400,8.517158447265626,3.251143483662605,4.548116892856359,-0.8726917658239602
1683692261787129300,8.52712939453125,3.314311595237255,2.5107196691244837,-0.6752689130604267
1683692261797101600,8.5371015625,2.6378131403818723,1.5891571971476077,-0.057526306295394895
1683692261807072500,8.547072509765625,1.714085891586542,1.36294664131701,0.5418392245188355
1683692261817044500,8.55704443359375,0.7294646136283874,1.350821903759241,1.0003396560937166
1683692261827015400,8.567015380859376,-0.04110021828189492,1.1536445501893757,1.30412386547029
1683692261836987400,8.5769873046875,-0.5042071207389235,0.5558703802198172,1.336782564751804
1683692261846958300,8.586958251953124,-0.77040598808676,-0.5736614729762077,1.0786790333151817
1683692261856930600,8.5969306640625,-0.7550634575262666,-2.0092636006593705,0.5524763538673519
1683692261866901500,8.606901611328125,-0.6404664797484875,-3.501336388105154,-0.06870090352147817
1683692261876873500,8.61687353515625,-0.6465877391077578,-4.913373515805602,-0.5763873908087611
1683692261886844400,8.626844482421875,-0.7500760245025158,-6.281869607943296,-0.8705220205694436
1683692261896816400,8.63681640625,-0.8670109437085688,-7.6065207131356,-0.9253989813998341
1683692261906787300,8.646787353515625,-0.9093427496120333,-8.80176451717019,-0.6877043240025639
1683692261916759600,8.656759521484375,-1.0078376106336713,-9.816406839382648,-0.20078589945584535
1683692261926730500,8.66673046875,-1.0653776531934738,-10.59670147653818,0.4158051991865039
1683692261936702500,8.676702392578125,-1.2364170875526963,-11.07755724004507,1.1581377699553965
1683692261946673400,8.68667333984375,-1.3561831385314465,-11.481185971486568,1.8159534439116716
1683692261956649500,8.6966494140625,-1.3531658365368842,-11.767470764529705,2.2483787923790515
1683692261966620700,8.70662060546875,-1.5040671766221523,-11.865616665983199,2.645734581030905
1683692261976592600,8.716592529296875,-1.7563120451584457,-11.622204215461014,3.116689420509338
1683692261986563600,8.7265634765625,-1.9736792231895028,-10.515046106636524,3.7301919054865835
1683692261996535600,8.73653564453125,-1.8067406482778487,-8.219389576384424,4.0992707170724865
1683692262006506800,8.7465068359375,-1.2840075446367263,-5.646606542056799,3.918826763899624
1683692262016478500,8.756478515625,-0.7174630640588701,-3.612518296742439,3.47847865960896
1683692262026449700,8.76644970703125,-0.19656886628270148,-1.5321598831623793,3.015657149964571
1683692262036421600,8.776421630859375,0.399419004791975,0.5041793559491634,2.2837499654896556
1683692262046392600,8.786392578125,1.0986775729879736,2.4889520739525555,1.3234215633973478
1683692262056364500,8.796364501953125,1.652178885988891,4.230036447101831,0.3328226723343134
1683692262066335700,8.806335693359374,1.5932206471942365,5.312532992878556,-0.45518663085177535
1683692262076307500,8.816307373046875,0.6860732156693935,5.68448239146471,-0.9073279026582837
1683692262086278700,8.826278564453125,-0.3498877889037132,5.565265060409903,-0.80047934705019
1683692262096250600,8.836250732421876,-0.9794380301013589,5.061386148712039,-0.1653581738524139
1683692262106221600,8.8462216796875,-1.0228164224483072,4.512166458553075,0.32949016691073774
1683692262116193500,8.856193603515624,-0.4938578684210777,4.726346969372034,-0.07513678178787231
1683692262126164700,8.866164794921875,-0.2042974147081375,5.754969886142015,-1.1211555083863436
1683692262136136400,8.876136474609375,-0.12788403711318969,7.009761273166537,-2.5113082826673985
1683692262146107600,8.886107666015626,0.2551436587177217,8.140727543079853,-3.8353625910103317
1683692262156079900,8.896079833984375,0.670072513461113,8.716039705872536,-4.585166228312254
1683692262166050600,8.906050537109374,0.6263735108576715,8.502447808596491,-4.300232849878072
1683692262176022800,8.916022705078126,0.5044213480114936,7.557011124557256,-2.53737795894742
1683692262185993700,8.92599365234375,0.3657961366534233,6.01609802609682,-0.19461042569130657
1683692262195965700,8.935965576171874,0.29115751364603637,4.586154070305824,1.3163807049751282
1683692262205936600,8.9459365234375,0.27220146876350043,3.4728456221580504,2.042343447962403
1683692262215908900,8.955908935546875,0.16375731452703474,2.503027945578098,2.191496921467036
1683692262225879600,8.965879638671876,-0.09083484778776764,1.6154975070625543,1.9679744356766342
1683692262235851800,8.975851806640625,-0.45516500354185696,0.7580500721216201,1.71134799105525
1683692262245822700,8.98582275390625,-0.7665177484765648,-0.09594342297315597,1.6237179306581615
1683692262255794700,8.995794677734375,-1.0014122537612915,-0.9626292263805866,1.7118369436159728
1683692262265765600,9.005765625,-1.1891044244967401,-1.8256477394521236,1.8644865886732935
1683692262275737900,9.01573779296875,-1.3248457509815692,-2.631927881735563,2.1052213444188235
1683692262285708500,9.02570849609375,-1.5282804113805293,-3.3637422733604905,2.3200278781816364
1683692262295680800,9.0356806640625,-1.758292113059759,-4.0129795040637255,2.482731299741566
1683692262305651700,9.045651611328125,-1.8707602621152997,-4.601623442116379,2.578608379480243
1683692262315623700,9.055623779296875,-1.8350069578193127,-5.107231369563937,2.5470593950062987
1683692262325594600,9.0655947265625,-1.7635284062780439,-5.529997932195663,2.3478597418285907
1683692262335566800,9.07556689453125,-1.7652444164156913,-5.891407816588878,2.017035695965588
1683692262345537500,9.08553759765625,-1.9039536527954042,-6.2159156650424,1.632011857881397
1683692262355509800,9.095509765625,-2.1969817826189098,-6.520392532858252,1.2998043948359788
1683692262365480700,9.105480712890625,-2.56233119841814,-6.826626473474502,1.0293120680779217
1683692262375452700,9.11545263671875,-2.8704595744788644,-7.173533785262704,0.8254371165655553
1683692262385423600,9.125423583984375,-3.022543694607913,-7.571041987997293,0.7057856318771839
1683692262395395800,9.135395751953125,-2.9388907211482524,-7.966864429602026,0.7132400395363568
1683692262405366800,9.14536669921875,-2.6613378083541988,-8.203892732045054,0.7968379218079149
1683692262415338800,9.1553388671875,-2.295108248719573,-8.314294303959608,1.0330826726578175
1683692262425309700,9.165309814453124,-1.850904638044536,-8.285617075529695,1.3675073733612895
1683692262435281700,9.17528173828125,-1.637780942802131,-7.920641023087501,1.6711957211479544
1683692262445252600,9.185252685546875,-1.5069418552756308,-7.171935702416301,1.916550830170512
1683692262455224800,9.195224853515626,-1.4698074718847869,-5.8691965693026775,2.01931679264009
1683692262465195800,9.20519580078125,-1.510930632650852,-4.482620630595088,1.9714558480516076
1683692262475167700,9.215167724609374,-0.37890959298759697,-3.0767998931914566,1.7968901392623782
1683692262485138700,9.225138671875,3.923895737726986,-1.5597674365341663,1.2962787049278617
1683692262495109600,9.235109619140625,9.907989729058741,0.039354689788818356,0.4472597833752632
1683692262505081600,9.24508154296875,12.961615082889795,1.2361106519520282,-0.20000760855972766
1683692262515053800,9.2550537109375,10.635559322720766,1.3719441867649553,-0.17934154488891363
1683692262525024800,9.265024658203124,4.424036631940305,0.08014496533870696,1.115012621717155
1683692262534995500,9.274995361328125,-4.8156677593350405,-1.5972019719153643,2.4309222020491954
1683692262544967700,9.2849677734375,-11.465624829739332,-3.2454473178476095,1.7322034398183226
1683692262554938600,9.294938720703126,-4.6634477378666395,-1.212583645892143,-1.7845201947718858
1683692262564910600,9.30491064453125,1.1231205248489975,0.9767582894980907,-5.251691278424858
1683692262574881500,9.314881591796874,5.32627101085186,1.5536574292212724,-8.890514813768863
1683692262584853800,9.324853759765626,7.650762590444088,3.7338241245090957,-10.886481710481643
1683692262594824400,9.334824462890625,-0.4564370693042874,5.950729774129391,-11.29031736267209
1683692262604796700,9.344796630859374,2.8102006283491847,10.975436589741706,-9.303457901522517
1683692262614767600,9.354767578125,-3.7039208614155648,11.73189442423582,-8.804530474752188
1683692262624739600,9.364739501953125,-2.443219665825367,7.04675624808669,-7.82478060222268
1683692262634710500,9.37471044921875,2.856099917475879,4.194283581197261,-4.7060856871098276
1683692262644682800,9.384682861328125,3.494631337508559,1.9548159711569546,-2.2143565496593713
1683692262654653400,9.3946533203125,2.5772593029588458,-0.22892449096441267,-0.8500485568612813
1683692262664625700,9.404625732421875,2.1968641475886104,-1.2815519681781529,-0.034084055909514424
1683692262674596600,9.4145966796875,2.184222108158469,-0.6281459273576736,0.29101065252125263
1683692262684568600,9.424568603515626,2.4983152378425,1.8159136964231728,-0.36232056949734687
1683692262694539500,9.43453955078125,2.9430773591831323,4.745493568390607,-1.442962427318096
1683692262704511700,9.44451171875,2.6828660418123005,7.672900772494077,-2.2440344795644283
1683692262714482400,9.454482421875,2.700841551224887,9.979474418079853,-2.958586186221242
1683692262724454700,9.46445458984375,2.818325774876773,10.91546932003498,-3.9062896461486813
1683692262734425600,9.474425537109376,3.4374840936586257,10.2098648899436,-4.612526528924703
1683692262744397600,9.4843974609375,4.429819891516864,8.245253500959276,-5.215799880832433
1683692262754368500,9.494368408203124,5.274807950118184,6.13512363397181,-5.906733980536461
1683692262764340700,9.5043408203125,6.0386640781700605,4.917773212069273,-7.116264084076881
1683692262774311400,9.5143115234375,5.957058392629027,4.597629988566041,-9.156894882902503
1683692262784283600,9.52428369140625,5.034727858889102,5.335033578500151,-11.241719043719767
1683692262794254600,9.534254638671875,3.7881320532798766,7.077040911713242,-12.758179253447056
1683692262804226600,9.5442265625,2.733703664124012,9.165081696489453,-13.872315384590625
1683692262814197500,9.554197509765626,1.8384582673169672,10.591665235936642,-14.356252747499942
1683692262824169700,9.564169677734375,1.4259822125531731,11.160091730868816,-13.7182377525568
1683692262834140400,9.574140380859374,1.401085087183863,10.941646548342705,-11.82225098698735
1683692262844112600,9.584112548828125,1.0002138377569616,9.773745509263872,-9.081360041707754
1683692262854083600,9.59408349609375,0.6967125369749962,7.931223207378387,-5.745826794743538
1683692262864055600,9.6040556640625,0.3631714872382581,5.879816747516394,-2.422991409049928
1683692262874026500,9.614026611328125,0.3275191590987146,4.2040392515361305,0.01600070220828056
1683692262883998700,9.623998779296874,-0.04257540540099144,2.7909114059895277,1.5584602994583545
1683692262893969400,9.633969482421875,-0.38679362423568964,1.2392641475468873,2.2881340257927776
1683692262903941600,9.643941650390625,0.45755672098398203,-0.8272153782844544,2.148641091689467
1683692262913912600,9.65391259765625,0.7824480157971382,-3.4614030216455456,1.1645622500449417
1683692262923884500,9.663884521484375,-0.08956979628801345,-5.980471416920423,0.6628668198660016
1683692262933855500,9.67385546875,-0.5596236683387309,-7.891748690602183,1.2619593789577483
1683692262943827700,9.68382763671875,-0.053771337676048275,-9.287416282781958,2.8698820668518543
1683692262953794600,9.693794677734376,0.7360160810984671,-10.09508934072852,4.864142159646749
1683692262963766300,9.703766357421875,0.8633937761247158,-10.359036045235396,6.403678124535084
1683692262973737500,9.713737548828124,0.9626270344235003,-10.189977117168903,6.969254490733146
1683692262983709400,9.72370947265625,0.13989347772821784,-9.488559032851457,6.494712732678652
1683692262993680400,9.733680419921875,-3.086344551128149,-8.89029503353834,4.983458274900913
1683692263003652400,9.74365234375,-7.191765607523918,-9.002051527193188,2.9980384911656377
1683692263013623600,9.75362353515625,-8.699799349689483,-10.154615880930423,1.4756861546598374
1683692263023595300,9.76359521484375,-6.423599799579382,-12.106620886319876,0.3185008631236851
1683692263033566500,9.77356640625,-1.9885776632443068,-14.016647867679595,-0.21241014014557003
1683692263043538400,9.783538330078125,0.7619241370759904,-14.752359851264952,0.7777436374984681
1683692263053509400,9.79350927734375,-0.06122413790002465,-13.955752377212047,2.55707283949852
1683692263063481300,9.8034814453125,-2.2204877458907664,-12.32819442999959,3.561737957575917
1683692263073452500,9.81345263671875,-3.9193011034131047,-10.438483091437815,3.124325029954314
1683692263083423500,9.823423583984376,-4.000490024846792,-8.903030011948943,1.4895729334540664
1683692263093395500,9.8333955078125,-2.7390309966266155,-7.716623009842634,-0.18841274009495973
1683692263103367400,9.843367431640624,-1.4797383526600896,-6.961814111599326,-1.359643215857446
1683692263113338400,9.85333837890625,-1.2437867395378648,-7.414935480484366,-1.715106905197352
1683692263123309300,9.863309326171875,-1.1698038039602339,-8.18931358707249,-0.6898664704725146
1683692263133281500,9.873281494140626,-1.1069488499879836,-9.068712157058716,1.2377461441993713
1683692263143252500,9.88325244140625,-1.4149065456569194,-10.119887097376584,2.5531974593698976
1683692263153224400,9.893224365234374,-1.8424575660862028,-10.937249774688482,3.1763729048386216
1683692263163195400,9.9031953125,-1.805853782440722,-11.397229923427105,3.2137098250642415
1683692263173167400,9.91316748046875,-1.2289435368016361,-11.230772117769718,2.68953455979079
1683692263183138300,9.92313818359375,-0.5567525698818266,-10.180406155747175,1.6829552786551414
1683692263193110500,9.933110595703125,-0.6392284623861313,-9.151969701460004,0.7407207516580819
1683692263203081500,9.94308154296875,-1.3766634703718126,-8.714640944990515,0.27378260047510267
1683692263213053400,9.953053466796876,-1.560474708020687,-8.718740197002887,0.21807985634505747
1683692263223024400,9.9630244140625,-0.608241787970066,-8.868338637796043,0.36109745744317767
1683692263232996400,9.972996337890624,0.789427207159996,-8.900132536941767,0.4863759882330894
1683692263242967300,9.98296728515625,1.6421908681988715,-8.801911232164501,0.5426251872647553
1683692263252939500,9.992939453125,1.9010031324267387,-8.634184429484606,0.630075434115529
1683692263262910500,10.002910400390626,1.3995721984028815,-8.406492110663653,1.0104606526136397
1683692263272882400,10.01288232421875,0.1662311572946608,-7.821408495441078,1.782799216198176
1683692263282853400,10.022853271484376,-1.0237713850855827,-7.278188337957858,2.6294763969302175
1683692263292825300,10.032825439453125,-2.043740016887337,-7.143254382333159,3.4144442865937945
1683692263302796300,10.04279638671875,-3.3194320069909096,-7.159476618337631,3.9434471181541677
1683692263312768500,10.0527685546875,-4.314414812226593,-6.8373536191940305,3.8807588990509507
1683692263322739500,10.062739501953125,-2.522485510241985,-5.442289253604412,3.1454514046132562
1683692263332711400,10.07271142578125,-0.2217699430346489,-3.0792993087917564,2.0466060738429426
1683692263342682400,10.082682373046875,1.7253028666496275,0.5073913037329912,0.4367845665901899
1683692263352654300,10.092654296875,1.9104219720266757,5.349165564227103,-1.4137544530123471
1683692263362625300,10.102625244140626,14.4428274536252,14.553395614278315,-3.0369343312710524
1683692263372597500,10.112597412109375,16.954686355912685,21.114375593590736,-2.1409972989380357
1683692263382568400,10.122568359375,-12.18648878828287,17.566989401972293,-3.8954479341387747
1683692263392540400,10.13254052734375,-18.97283468929529,18.712752843523024,-5.261064671447873
1683692263402511400,10.142511474609375,2.907818706536293,24.50587914958,-9.418998589891194
1683692263412483300,10.1524833984375,15.336029508036374,19.82287214024067,-15.72776321902275
1683692263422454300,10.162454345703125,2.53536369651556,9.162731333971022,-14.708242477118969
1683692263432426500,10.172426513671875,-2.201307390733063,6.784943048477173,-10.974686063635348
1683692263442397400,10.1823974609375,0.1305433194503188,6.9124144131362435,-10.836258420675993
1683692263452369400,10.192369384765625,2.2232430359482764,5.7296419681400055,-12.431016506570577
1683692263462340400,10.20234033203125,2.4144132580578326,5.5165241181164975,-13.987389039969443
1683692263472312600,10.2123125,2.186176749357581,6.168890294495225,-14.444422029340267
1683692263482283300,10.222283203125,2.146212257107347,6.759356187278032,-14.46269418361187
1683692263492255500,10.23225537109375,1.9891960874035954,7.472963891083002,-12.974330772078037
1683692263502226400,10.242226318359375,1.8267980785310267,8.012702636191248,-9.135865538877248
1683692263512197400,10.252197265625,1.8872279973134398,7.267768650752306,-4.67974829980433
1683692263522169300,10.26216943359375,2.1828069806635377,5.468678078836202,-0.8621844003349542
1683692263532140500,10.272140625,2.1296365314900876,3.6072511699944734,1.8995768990159034
1683692263542112300,10.2821123046875,1.5514356615185736,2.5696739623963833,3.769087161070108
1683692263552083500,10.29208349609375,0.8652852889597415,2.646348036754131,4.84120084452033
1683692263562055400,10.302055419921874,-0.26083441770523785,3.5486014126271006,4.77122597554028
1683692263572026400,10.3120263671875,-1.3264520171344278,4.558553531196713,3.3478809796229
1683692263581998300,10.321998291015625,-1.9713924274265764,5.181282694202661,1.2039525956690311
1683692263591969500,10.331969482421876,-2.4524539426386354,5.0524675137192006,-0.9242296453595161
1683692263601941200,10.341941162109375,-2.629534849119186,3.817960205310583,-2.545110891287029
1683692263611912400,10.351912353515624,-2.620586988031864,2.0173931311011315,-3.3647686937987804
1683692263621884400,10.361884521484376,-2.396051087415218,0.2438987727344036,-3.24495135102421
1683692263631855400,10.37185546875,-1.6854828974366187,-1.3814870911359787,-2.7448174710735675
1683692263641827300,10.381827392578124,-1.2256767900906502,-2.758811801895499,-2.1525103343382477
1683692263651798500,10.391798583984375,-1.1267292168654501,-3.8304140286922452,-1.5605264382079242
1683692263661770200,10.401770263671875,-1.0764417757824063,-4.627375723010301,-1.0300731155782938
1683692263671741400,10.411741455078126,-0.9840496155500411,-5.2524143320024015,-0.6165513511538505
1683692263681713400,10.42171337890625,-0.8989736235499382,-5.719118820559978,-0.36445115178525445
1683692263691684600,10.4316845703125,-0.8115479996837676,-6.075206633147597,-0.1577607044607401
1683692263701656300,10.44165625,-0.7035096497692167,-6.1675716131120915,0.19171002807468174
1683692263711627500,10.45162744140625,-0.43421676192879677,-5.984565408235788,0.782711342908442
1683692263721599200,10.46159912109375,-0.10292027624845504,-5.677871448892355,1.3982532247588038
1683692263731570400,10.4715703125,0.006598083090782165,-5.514556032913923,1.8504016569584607
1683692263741542400,10.48154248046875,-0.500100416072458,-5.642736422625184,2.154774187617004
1683692263751513600,10.491513671875,-1.1358920358777045,-6.035607028687,2.3383736822113392
1683692263761485300,10.5014853515625,-1.3092718958832323,-6.571005698764324,2.3715929379850627
1683692263771456500,10.51145654296875,-1.2868833923339842,-7.118939440765977,2.172903426286578
1683692263781428200,10.52142822265625,-1.1050246039271354,-7.55827193827331,2.1591835284918544
1683692263791399400,10.5313994140625,-0.9940846873521805,-7.8635355725526805,2.208677919501066
1683692263801371400,10.541371337890626,-0.613060878689587,-7.986337776356935,2.269999526426196
1683692263811342600,10.551342529296875,0.09694295540452003,-7.83832105179727,2.4247379604563117
1683692263821314300,10.561314208984374,0.7665935901917517,-7.216926352265477,2.611021287307143
1683692263831285500,10.571285400390625,1.0407622673749923,-5.942858602362871,2.6939520839720963
1683692263841257200,10.58125732421875,0.5569125827491284,-4.302171124464273,2.490348496747017
1683692263851228400,10.591228515625,-0.46352337430343027,-2.5070710834890604,2.0199454459324477
1683692263861199400,10.601199462890625,-1.1804818498410283,-0.43540158779919147,1.6278645289435982
1683692263871171600,10.611171630859374,-1.628687243503332,1.8755694159626959,1.2662187899678945
1683692263881142300,10.621142333984375,-2.2788300447441636,4.112612429204583,0.7112737078994512
1683692263891114500,10.631114501953125,-2.544530168789625,5.890253970378637,-0.07082037989348172
1683692263901085400,10.64108544921875,-0.620191899613291,7.69799838887155,-1.0620789039090275
1683692263911057400,10.651057373046875,1.9403085762463508,10.020423683583736,-1.7152037897005676
1683692263921028400,10.6610283203125,2.600048350133002,11.835399222373962,-1.6810174424603581
1683692263931000600,10.67100048828125,2.0021977539263665,11.940797871434688,-1.6132885988414287
1683692263940971300,10.68097119140625,0.4952396781682968,8.460521807014942,-1.9909645583808422
1683692263950943500,10.690943603515626,-0.7685727813102304,4.31898022044599,-2.694767199747264
1683692263960914400,10.70091455078125,-0.25083719369545576,2.3553151724010704,-3.12589008731395
1683692263970886400,10.710886474609374,0.9413257415890693,1.8405004406690597,-2.8108395107746125
1683692263980857300,10.720857421875,1.5054688601136206,1.9965701233029365,-2.0783242774039508
1683692263990829600,10.73082958984375,1.4379472295045852,2.4286615636408326,-1.2625710811153052
1683692264000800300,10.74080029296875,1.218617080837488,3.0193460676103827,-0.49458852078318594
1683692264010772500,10.7507724609375,1.130223342591524,3.447150039887428,0.2379559386819601
1683692264020743400,10.760743408203124,1.1475791126705706,3.247693635469675,0.8618544377282261
1683692264030715400,10.77071533203125,1.2296961087346077,2.5394150177329777,1.4152338779151439
1683692264040686300,10.780686279296875,1.341236767681688,1.5302701238930225,1.8886828722968696
1683692264050658600,10.790658447265624,1.547237479176372,0.4006301341474056,2.327190024895966
1683692264060629200,10.800629150390625,1.7065537425160406,-0.6699421650797128,2.809586588104069
1683692264070601500,10.8106015625,1.5978713956095276,-1.5719336751461028,3.3157316911682484
1683692264080572400,10.820572509765626,1.3052270044066012,-2.261761274912953,3.8079517292544245
1683692264090544400,10.83054443359375,0.8698599033989012,-2.7715941265791653,4.240841041971743
1683692264100515300,10.840515380859374,0.4459415403835475,-3.139650024858117,4.6307180191755295
1683692264110487600,10.850487548828125,0.10031783866509794,-3.4110312632799147,5.049345582306385
1683692264120458200,10.860458251953125,-0.32407281803712246,-3.7668005114376544,5.095122998619079
1683692264130429400,10.870429443359376,-0.6630735944844782,-4.177303804823756,4.804985329540074
1683692264140401400,10.8804013671875,-0.7732125699400901,-4.387261729511619,4.31144631780982
1683692264150372600,10.89037255859375,-0.7858980101205408,-4.264042177078128,3.641151978291571
1683692264160344300,10.90034423828125,-0.8139535995207726,-3.68357394669652,2.7810826704144476
1683692264170315500,10.9103154296875,-0.8121347135305405,-2.8786019644021987,1.8719313517212868
1683692264180287500,10.92028759765625,-0.7464272927366197,-2.0464368547558784,1.028013552699983
1683692264190258400,10.930258544921875,-0.5350247221983969,-1.225484043997526,0.3693795480981469
1683692264200230400,10.94023046875,-0.2990086655378342,-0.47437633835971355,-0.02357376781105995
1683692264210201600,10.95020166015625,-0.318089798104763,0.0656043988108635,-0.21030922234356403
1683692264220173300,10.96017333984375,-0.5464110624790192,0.29054303500950335,-0.2933265282481909
1683692264230144500,10.97014453125,-0.7611351786553859,0.16716799975335597,-0.2767155851870775
1683692264240116500,10.980116455078125,-0.8032159324072301,-0.05674889218211174,-0.19272329677045344
1683692264250087400,10.99008740234375,-0.7628047193028032,0.0007990414232015609,-0.18996844510436056
1683692264260059400,11.000059326171876,-0.6502550294436514,0.2850502828121185,-0.32922581688612695
1683692264270030600,11.010030517578125,-0.0983387936770916,0.7265653850555419,-0.5587608409643173
1683692264280002300,11.020002197265624,1.0690180555224418,1.242275019800663,-0.7984107240825891
1683692264289973500,11.029973388671875,2.186738182632625,1.7854115906536578,-0.9959437592223286
1683692264299945500,11.039945556640625,2.2673941662333905,2.214517293179035,-1.2508660302743315
1683692264309916400,11.04991650390625,1.006938177575916,2.157096200823784,-1.4478215577870606
1683692264319888400,11.059888427734375,-0.08090513605624437,1.3493062384992838,-1.315483756135404
1683692264329859600,11.069859619140624,0.6286497852265834,0.6991542310386896,-0.732357996982336
1683692264339831300,11.079831298828125,1.6768413258194923,0.7225590720236301,0.12227788766920566
1683692264349802500,11.089802490234375,1.5856664324223995,0.8885065900713205,1.1129556891873478
1683692264359773400,11.0997734375,0.6532910361386836,1.2308452787697315,2.2609479127034544
1683692264369745400,11.109745361328125,0.27719898478984834,1.6084055029749869,3.3557468906924126
1683692264379716400,11.11971630859375,1.1332032351851462,1.9767033933162688,4.125717409971356
1683692264389688600,11.1296884765625,2.7893934026420113,2.6815742484360934,4.189737754461169
1683692264399659500,11.139659423828125,4.000290118360519,3.3816292277067896,2.525546651378274
1683692264409631500,11.149631591796876,3.566961829704046,3.2615982421815395,-0.5117654271639883
1683692264419602400,11.1596025390625,1.56893624689579,2.6141128235816953,-2.8888895496606826
1683692264429574400,11.169574462890624,-0.7731155393064022,1.3263614162415265,-4.558350702100992
1683692264439545300,11.17954541015625,-2.1699683957479894,-0.578756165766716,-5.4935985850811
1683692264449517600,11.189517578125,-2.118204306241125,-2.1303367887139317,-5.323412698811293
1683692264459488500,11.199488525390626,-1.2276068813703953,-2.8630741404026745,-3.742570617805421
1683692264469460500,11.20946044921875,-0.45818917366862294,-2.8160294806331394,-1.5123432759277522
1683692264479431400,11.219431396484374,0.10899462772607803,-2.5856752491265533,0.2142569370560348
1683692264489403400,11.2294033203125,0.4075215741615742,-2.3368612318217754,1.3892032184712588
1683692264499374300,11.239374267578125,0.5539537329435348,-1.91746852953732,2.2399692759521304
1683692264509346600,11.2493466796875,0.5716693493109196,-1.3374977272838353,2.710867855198681
1683692264519317500,11.2593173828125,0.340294615650177,-0.7830360448181629,2.760596639485657
1683692264529289500,11.26928955078125,-0.22830738197937606,-0.46003158666491506,2.3793834457308054
1683692264539260400,11.279260498046876,-0.9204888513959943,-0.3835767080157995,1.6421838539361953
1683692264549232400,11.289232421875,-1.53294138892889,-0.4991214880377054,0.7737460922949015
1683692264559203300,11.299203369140624,-1.6396318313658236,-0.7535662047058344,-0.0374140771150589
1683692264569175600,11.309175537109375,-0.8687060571886599,-0.9276245484948158,-0.7422169815652072
1683692264579146500,11.319146484375,0.09891038301996886,-0.9561182370513677,-1.1054608033873141
1683692264589117200,11.3291171875,-0.06620411826968192,-0.8005693634212017,-0.6778842101253568
1683692264599089400,11.33908935546875,-1.0494588571149854,-0.49813890674114225,0.17509762370884419
1683692264609060400,11.349060302734374,-1.6187001024961472,-0.21206629514396189,0.8062547155812382
1683692264619032300,11.3590322265625,-1.5535656592845917,-0.031791561058163643,1.2721480338864029
1683692264629003300,11.369003173828125,-1.1125463046688586,0.25931261496543884,1.7817641740620136
1683692264638975500,11.3789755859375,-0.8778163422960787,0.7614344538629054,2.2795216802701352
1683692264648946200,11.3889462890625,-1.0030419738549738,1.256214113304019,2.7028780254885554
1683692264658918400,11.39891845703125,-1.1129951444149018,1.4211165062129496,2.977698298448324
1683692264668889300,11.408889404296875,-1.1982325375217944,1.2280670462280512,3.092978290054202
1683692264678861300,11.418861328125,-1.0717208847403525,0.9881114581614732,3.0709751325607297
1683692264688832300,11.428832275390626,-0.7029681633036583,0.8577227447509765,2.892790064230561
1683692264698804500,11.438804443359375,-0.4124994356393814,0.7896019792050123,2.4130660812325773
1683692264708775200,11.448775146484374,-0.28731004443764685,0.7969400670081377,1.7028525499105454
1683692264718747400,11.458747314453126,-0.41248306902647014,0.8117173649013042,0.9883781462736427
1683692264728718600,11.468718505859375,-0.535987868142128,0.7922931179851294,0.5048484873823821
1683692264738690300,11.478690185546874,-0.590413797269389,0.6630044747710228,0.23318887041062114
1683692264748661500,11.48866162109375,-0.6153063195288181,0.42483869273066516,0.06303615575805306
1683692264758632400,11.498632568359374,-0.6417980206131935,0.2655938871920109,-0.05259469511210918
1683692264768604400,11.5086044921875,-0.7469722863335162,0.2938005755007267,-0.15862769655361772
1683692264778575400,11.518575439453125,-0.6874199541032314,0.44761400364041326,-0.3837601017586887
1683692264788547600,11.528547607421874,-0.461603950548172,0.6961755074888467,-0.7724607286594808
1683692264798518500,11.5385185546875,-0.2870866109453141,0.8935749793767929,-1.174397707621753
1683692264808490500,11.548490478515625,-0.23709844506978986,0.829487414869666,-1.4957619973525405
1683692264818461400,11.55846142578125,-0.2190156758904457,0.4421732738912105,-1.727273582200706
1683692264828433400,11.568433349609375,-0.20821612252183258,-0.15588029754161833,-1.7874663312263785
1683692264838404400,11.578404296875,-0.30137955938763916,-0.6443997275441885,-1.6844355803407727
1683692264848376600,11.58837646484375,-0.48917584808468817,-0.8513765905946493,-1.4824237923517822
1683692264858347500,11.598347412109375,-0.6636018561422824,-0.7740577885925769,-1.2247180280610919
1683692264868319500,11.608319580078126,-0.6521978340744972,-0.4386415926337242,-0.9432327442541718
1683692264878290400,11.61829052734375,-0.49668812341094015,-0.030976153022050857,-0.6699865887433291
1683692264888262400,11.628262451171874,-0.3399498208004981,0.28901918644309044,-0.44809725711271164
1683692264898233300,11.6382333984375,-0.38310032267570493,0.4355301826149225,-0.25529578053951263
1683692264908205600,11.64820556640625,-0.4285797058898955,0.4173737636774778,-0.06441007445976138
1683692264918176500,11.658176513671876,-0.4205388766448945,0.32829613482058045,0.1383230135411024
1683692264928148500,11.6681484375,-0.3329915991604328,0.23238661411702632,0.3570470130085945
1683692264938119400,11.678119384765624,-0.19418167888522148,0.09651917703449725,0.5868681605517864
1683692264948090400,11.68809033203125,-0.06043254913091659,-0.06465279717445373,0.732050246207416
1683692264958062600,11.6980625,-0.13936170893907546,-0.17858955747783184,0.6865607069253921
1683692264968033800,11.70803369140625,-0.33538696986436844,-0.17161211968064308,0.4400377231672406
1683692264978005800,11.718005859375,-0.5347300501007587,-0.09064648560881614,0.14343421907499432
1683692264987976700,11.727976806640624,-0.7238355947654694,-0.008213701593875885,-0.13417144681960344
1683692264997948700,11.73794873046875,-0.8040439076639712,0.1206815583884716,-0.3281349529094994
1683692265007919900,11.747919921875,-0.7948188370704651,0.18760873023569583,-0.38636049351543184
1683692265017891600,11.7578916015625,-0.6580407148838043,0.13176701602637766,-0.31259879947304725
1683692265027862800,11.76786279296875,-0.4628874144874513,0.051587563896179196,-0.17065291925966738
1683692265037834800,11.777834716796875,-0.3757774324417114,0.013383797708153724,-0.07876432463526725
1683692265047804700,11.7878046875,-0.41520679490193724,0.05222644632160663,-0.07415215466469526
1683692265057775600,11.797775634765625,-0.4360838709749281,0.09904664968550204,-0.08138590531051158
1683692265067747600,11.80774755859375,-0.44079745549336075,0.12498773114979267,-0.18141805890202523
1683692265077718800,11.81771875,-0.474866898355633,0.08818331036567688,-0.2612210789352655
1683692265087690500,11.8276904296875,-0.5202526850022375,0.10655834048986434,-0.15317863736748694
1683692265097661700,11.83766162109375,-0.5545382548332214,0.21421207500100134,0.21753478968292472
1683692265107633700,11.847633544921875,-0.44798108338713644,0.304413739451766,0.6616995296522975
1683692265117604600,11.8576044921875,-0.37456403806395827,0.3025754181087017,1.0360933987811207
1683692265127576600,11.86757666015625,-0.3906768954098224,0.27703181152939793,1.3285896136850117
1683692265137547800,11.8775478515625,-0.44168812072277064,0.2885159130960703,1.5237015591576695
1683692265147519500,11.88751953125,-0.6113105278909206,0.3771235863536596,1.5390391212821006
1683692265157490700,11.89749072265625,-0.7798142332274466,0.4548305108904838,1.3593012705519794
1683692265167461600,11.907461669921876,-1.0432780495882035,0.44694706416428087,0.9776917709559202
1683692265177433900,11.917433837890625,-1.3268718499816954,0.368400181671977,0.5601207311406732
1683692265187404500,11.927404541015624,-1.6080125581346452,0.28350597597956656,0.21149667856246232
1683692265197376800,11.937376708984376,-1.8794691998802124,0.2028770265161991,-0.00870674580782652
1683692265207347700,11.94734765625,-2.0231040560938416,0.13399872060120105,-0.06672931118756532
1683692265217319700,11.957319580078124,-2.187138433996588,0.035381694504618644,-0.02141016003638506
1683692265227290600,11.96729052734375,-2.3455917968966067,-0.15333061305880546,0.007313245622813701
1683692265237262800,11.977262939453125,-2.373135637382418,-0.3904132760375738,0.07792407441884279
1683692265247233500,11.987233642578126,-2.2774479427359995,-0.5832885484993457,0.24743805277645586
1683692265257205800,11.997205810546875,-2.0672845586039124,-0.539296262037754,0.5452236062601208
1683692265267176700,12.0071767578125,-1.688704343701154,-0.412097284579277,0.8353414015948772
1683692265277148700,12.017148681640625,-1.1923650337278842,-0.3646621641874313,1.0315148388192057
1683692265287119600,12.02711962890625,-0.6694285164691507,-0.3075643124371767,1.133239183281362
1683692265297090800,12.0370908203125,0.01751227581501007,-0.14573358205854892,1.2128384974360464
1683692265307062500,12.0470625,0.7619443030811845,0.09809563257098197,1.2532649081096052
1683692265317033700,12.05703369140625,1.43564903556481,0.30403730735480783,1.2518141247794032
1683692265327005700,12.067005615234375,1.7884487663924693,0.5301414802014828,1.1824348836049436
1683692265336976600,12.0769765625,1.6569114674687384,0.770920659610629,0.9407944111913442
1683692265346948600,12.086948486328126,1.3871382487654684,1.0154273351103067,0.5728519101589917
1683692265356919800,12.096919921875,1.2916542599976062,1.287943130519986,0.20829583669453858
1683692265366891500,12.1068916015625,1.4311812425009904,1.6067349394142627,-0.02805120548605919
1683692265376862700,12.11686279296875,1.5925427479326724,1.8546616524904966,-0.2912503064960241
1683692265386834700,12.126834716796875,1.5939270418979226,1.9190028994977473,-0.468651823233068
1683692265396806000,12.136805908203126,1.5318563701711594,1.7831635194659232,-0.48382776505500075
1683692265406777600,12.146777587890625,1.440706172823906,1.4500976860255002,-0.3357783072695136
1683692265416748800,12.156748779296874,1.3327926183328032,1.0011012881159782,-0.10238163932710885
1683692265426720500,12.166720458984376,1.3516504635378717,0.5591816967248916,0.15713117438554763
1683692265436691700,12.176691650390625,1.5412529979392886,0.1316220545977354,0.27408903607577084
1683692265446662700,12.18666259765625,1.7069078166507183,-0.2403963175714016,0.14186024775654077
1683692265456635000,12.196634765625,1.6971207282602787,-0.5711854382514954,-0.19014847784638403
1683692265466605600,12.20660546875,1.491911751665175,-0.896679959654808,-0.6201113817229866
1683692265476577800,12.216577880859376,1.2210057295396923,-1.1546686325401068,-1.0948898711428046
1683692265486548700,12.226548828125,1.0503738530680538,-1.2910668154984712,-1.5865984525755046
1683692265496520700,12.236520751953124,0.9960872593462466,-1.378918117430806,-2.1422809090077877
1683692265506491600,12.24649169921875,0.9552956686221062,-1.4854460627824067,-2.7940885747209188
1683692265516463900,12.2564638671875,0.7914904233001172,-1.6175988632559775,-3.3209590704277154
1683692265526434600,12.2664345703125,0.41806729889959093,-1.79318456274271,-3.6437522239178417
1683692265536406800,12.27640673828125,0.045754912219941615,-2.040821937483549,-3.5881381809845565
1683692265546377700,12.286377685546874,-0.31314167417809363,-2.2156799072176216,-3.104431411960721
1683692265556349700,12.296349609375,-0.695318160007149,-2.3155606696397064,-2.3612559606269
1683692265566320600,12.306320556640625,-1.0529847662188112,-2.3886019404530523,-1.6732026770561932
1683692265576291800,12.316291748046876,-1.262988575875014,-2.3779466909259557,-1.040505370004475
1683692265586263600,12.326263671875,-1.2565573737837374,-2.265405768895149,-0.4564531436562538
1683692265596234800,12.33623486328125,-1.0644657990455626,-2.0327350771397352,-0.011284195080399512
1683692265606206700,12.346206787109375,-0.6502031531259417,-1.6614876893430948,0.3552539921119809
1683692265616178000,12.356177978515625,-0.152730893599987,-1.2694026807010172,0.6625880029246211
1683692265626149600,12.366149658203126,0.36255057886093855,-0.9755150114387273,0.9085080523535609
1683692265636120800,12.376120849609375,0.8607657657086849,-0.7646236052930354,1.1050392169743775
1683692265646092500,12.386092529296874,1.3058531734809278,-0.5794371337682008,1.2724968473240732
1683692265656063700,12.396063720703125,1.6013596761167048,-0.34535189903974534,1.4282733922302722
1683692265666035700,12.40603564453125,1.6303531308889387,-0.07030278576016426,1.5449918922066688
1683692265676007000,12.4160068359375,1.470427503479272,0.11520341923832893,1.5531298982158301
1683692265685978600,12.425978515625,1.2390388143584132,0.15487784250080586,1.4012009686484932
1683692265695949800,12.43594970703125,0.953266062490642,0.16334698016047478,1.0826146191984414
1683692265705921500,12.445921630859376,0.6752326727032661,0.21357611518502234,0.6865165755227208
1683692265715892700,12.455892822265625,0.4843580725394189,0.31790041301250455,0.3593786708265543
1683692265725865700,12.46586572265625,0.39810952962860463,0.40397886005342004,0.23084376858919858
1683692265735836700,12.475836669921875,0.30184257378950713,0.4401771316379308,0.2997968933060765
1683692265745808600,12.48580859375,0.027956659070402384,0.5530763655871153,0.49521658955365416
1683692265755779800,12.49577978515625,-0.5197077644705772,0.8258300614058971,0.6849374896377325
1683692265765751600,12.50575146484375,-0.5987760404884814,1.4299685057103633,0.7284007837891578
1683692265775722800,12.51572265625,-0.3427541376315057,2.290916057726741,0.6632970279768109
1683692265785693700,12.525693603515625,-0.1586181980729103,2.8665222350299358,0.8197296987041831
1683692265795665700,12.535665771484375,-1.3456522460363805,2.8649171379208562,1.4457649175181984
1683692265805636600,12.54563671875,-2.9587936914920805,2.425358430442214,2.287442828658223
1683692265815608800,12.55560888671875,-3.3577617376461624,1.9536779070377348,2.736080914649367
1683692265825579500,12.56557958984375,-2.2716240588881074,1.846732613056898,2.762350205154717
1683692265835551700,12.5755517578125,-0.7166307048879563,1.3565332671433687,2.708682035592198
1683692265845522700,12.585522705078125,0.21368965856209396,0.5951818153887987,2.658427473865449
1683692265855494700,12.59549462890625,0.7292753746666014,0.09408288979828357,2.4901456676512956
