time,seconds_elapsed,z,y,x
1683688222327836400,0.05583642578125,0.6431798303604126,0.21839414645861832,0.5923319789156317
1683688222337806300,0.065806396484375,0.5327291586071252,0.41161549241170287,0.618417437286675
1683688222347777500,0.075777587890625,0.45134851399362086,0.30587292528413235,0.9048042293995618
1683688222357747500,0.08574755859375,0.18387889605760574,1.13993356635347,1.1066726633951067
1683688222367718400,0.095718505859375,0.3821387841671705,0.8419583355166017,0.27860505219548937
1683688222377688600,0.1056884765625,0.7548422159910202,0.07887706429474055,0.05355155744552612
1683688222387659500,0.115659423828125,1.119286938035488,0.2981787905849516,1.1496721394270657
1683688222397629400,0.12562939453125,1.2892360929399729,0.6128433634813875,1.7325161590293048
1683688222407600600,0.1356005859375,1.5020476534932852,0.476242789818719,1.5489213406100868
1683688222417570600,0.145570556640625,1.82390118804574,0.1347700702998787,1.1314727581307291
1683688222427541500,0.15554150390625,1.3809849868327377,0.24915950627420097,0.9366738241299987
1683688222437511700,0.16551171875,0.5738602104187012,0.7621605761803686,1.0200713615238666
1683688222447481600,0.175481689453125,0.8112170141637325,0.9659730569157748,0.6478574667826295
1683688222457452500,0.18545263671875,1.4279431373625993,0.9545600478239357,0.22706045065820216
1683688222467422500,0.19542236328125,1.4382202012270688,0.9216227507967502,0.08021803057491779
1683688222477393700,0.2053935546875,1.4582991126596927,0.8129679494842886,0.13175357202291488
1683688222487363600,0.215363525390625,1.2641840692698956,0.9407425348736346,0.17810849596261977
1683688222497334500,0.22533447265625,0.9070388565838337,1.0720270280800759,0.18701076434254646
1683688222507304700,0.2353046875,1.7570272076904774,0.9135055683799087,0.37288930978477
1683688222517275600,0.245275634765625,1.4214204575955867,0.6398693906381726,-0.21025486180782316
1683688222527245600,0.25524560546875,-0.045505029112100595,0.3519362458661198,0.2567950791865587
1683688222537216800,0.265216796875,0.35120237863361836,0.16705255668014288,0.2671189048022032
1683688222547186700,0.275186767578125,0.0658306087821722,0.3004659151414409,-0.266971897546947
1683688222557156600,0.285156494140625,-0.45865153048336504,0.26473551679700613,-0.27995442097783085
1683688222567127600,0.29512744140625,-0.6223316881209612,0.3647412207730114,-0.07589315311312675
1683688222577097700,0.30509765625,-0.3857411925733089,0.36812618703618644,-0.388590736785531
1683688222587068700,0.315068603515625,-0.3069265990555286,0.2799091205313802,-0.839892489027977
1683688222597038600,0.32503857421875,-0.6163385851860046,0.05576821058169007,-1.3046329840362072
1683688222607009500,0.335009521484375,-0.994816508758068,-0.11567030609771609,-1.1877730297625064
1683688222616979700,0.344979736328125,-1.300709088590741,-0.2240052278060466,-0.7268734280914068
1683688222626950400,0.354950439453125,-1.4457815763920545,-0.426445689535886,-1.0666466502159833
1683688222636920600,0.364920654296875,-1.4393570963025093,-0.7300516197361051,-1.6577286290705202
1683688222646891500,0.3748916015625,-1.6909364866673946,-0.4495405877888202,-2.031910901275277
1683688222656861400,0.384861328125,-2.0777070222884415,-0.2619264507256448,-2.3881337384194135
1683688222666831600,0.39483154296875,-2.0800340039312837,-0.5094854995332658,-2.4623107352644205
1683688222676802600,0.404802490234375,-1.6716186227351426,-0.8201070075839757,-2.349382275220752
1683688222686772500,0.4147724609375,-1.4508675013542174,-1.1526702983297408,-1.8175263923168181
1683688222696743400,0.424743408203125,-1.4289146127432584,-1.3551973423644899,-1.0985048467695713
1683688222706713600,0.434713623046875,-1.0486229177474975,-1.3627116635173557,-1.002705800703168
1683688222716684500,0.4446845703125,-0.7804039427489042,-1.3585884461075066,-1.2746002493441104
1683688222726654500,0.454654541015625,-0.695764588600397,-1.3542153455898165,-1.2811778741687536
1683688222736625700,0.464625732421875,-0.4692021505922079,-1.3367720433577894,-1.1969915244847535
1683688222746595300,0.47459521484375,-0.11281623184084892,-1.25939668886289,-0.7111521273463964
1683688222756566500,0.48456640625,0.07582768666148185,-0.5065495922118425,-0.7179740823209285
1683688222766536400,0.494536376953125,0.7356757432281971,0.10922902100384235,-0.8545283326238393
1683688222776507400,0.50450732421875,0.3644868076205253,0.142268244035542,-0.8482926531046628
1683688222786477300,0.514477294921875,0.005493336719274521,-0.7867194095060229,-1.430847626632452
1683688222796447500,0.524447509765625,0.410385219964385,-0.8797422688573598,-1.1835165413618087
1683688222806418400,0.53441845703125,0.37905250858962536,-0.5233636566296219,-0.11037059225440024
1683688222816388400,0.544388427734375,0.6656237173587083,-0.7021683181628584,0.8223647233828901
1683688222826359600,0.554359619140625,0.6515653813898563,-0.9076283469095826,1.0303323510363698
1683688222836329500,0.56432958984375,0.17944997369945048,-0.5597749864429236,0.5386915741428733
1683688222846300400,0.574300537109375,0.07419745511114596,0.16355872321501375,0.21826661108881235
1683688222856270600,0.5842705078125,0.05070552036464214,0.679012337372452,0.12744623021781443
1683688222866241500,0.594241455078125,-0.02709434315264225,0.5780637995883822,0.2736296018704772
1683688222876211500,0.60421142578125,0.01722644461095333,0.07289382516667246,0.658018795312941
1683688222886182700,0.6141826171875,-0.26325755319893357,-0.3417345853254199,0.705775987266004
1683688222896152600,0.624152587890625,-0.22770225569307803,-0.5269704489499331,0.3848027426794171
1683688222906122500,0.63412255859375,-0.30472645866274833,-0.24616554862260817,0.27681290808171033
1683688222916093400,0.644093505859375,-0.16353578073084354,-0.22538097313866018,0.22448007877618073
1683688222926063600,0.654063720703125,-0.029018004691600797,-0.26535598678290845,0.025417057590186594
1683688222936034600,0.66403466796875,-0.08539163382053375,0.05284399369806051,0.10119505989104509
1683688222946004500,0.67400439453125,-0.19778058016002176,0.37650647736862297,-0.0915285291403532
1683688222955975400,0.683975341796875,-0.3429553592920303,0.3860353532142937,0.2538675013020634
1683688222965945600,0.693945556640625,0.07481061857342719,-0.07413973357453942,0.7180468552961945
1683688222975916300,0.703916259765625,-0.23402035279870032,-0.1569292220726609,-0.6723471803948283
1683688222985886200,0.71388623046875,-0.5224047484695911,1.0364467422634362,-1.2321738970249891
1683688222995857400,0.723857421875,0.25488953782618046,0.30640286744236944,-0.1782774227887392
1683688223005827300,0.733827392578125,0.44533904444575306,-0.04229118163213134,0.37957653246372935
1683688223015798300,0.74379833984375,-0.5863344920665026,0.1119398873977363,0.1036363155633211
1683688223025768400,0.7537685546875,0.30400165151953695,-0.009635989481955766,-0.19800766691416502
1683688223035738400,0.76373828125,-0.29866145953536033,0.1451933377020061,-0.3837847978085279
1683688223045709300,0.773709228515625,-0.15765432147681713,0.18404300057813525,-0.5308230327248573
1683688223055679200,0.78367919921875,0.11595102273523807,0.40062297375425693,-0.6378054438456893
1683688223065650400,0.793650390625,-0.10745207445919513,0.16942381585612892,-0.5917246606722474
1683688223075620400,0.803620361328125,0.32245793018639085,-0.38251360882893204,-0.4466247003421187
1683688223085591600,0.813591552734375,0.5250426957577466,-0.3431482515156269,-0.29983021105378865
1683688223095561500,0.8235615234375,0.8145797685950994,-0.09241612562984228,-0.20546441266089677
1683688223105532400,0.833532470703125,0.8420622342824935,0.0643096828252077,-0.20994097355306146
1683688223115502300,0.84350244140625,0.5298503883004189,-0.02347249939367175,-0.1556809755772352
1683688223125473500,0.8534736328125,0.22437106544375418,-0.21115473325699566,-0.11910042667686939
1683688223135443500,0.863443359375,0.20488427468538284,-0.16591668451800942,-0.3812918119490146
1683688223145414400,0.873414306640625,0.2135603330940008,0.011383709932118654,-0.32388299455344677
1683688223155384600,0.883384521484375,0.022915596163272857,-0.19578546082004902,0.032303017711639403
1683688223165354500,0.8933544921875,-0.07467325592935085,-0.47421106479540465,0.0034080548778176304
1683688223175325400,0.903325439453125,-0.09203647866249084,-0.1516951208114624,-0.042156303206086154
1683688223185295400,0.91329541015625,-0.2083271086156368,0.11875292841345071,0.028185937781631944
1683688223195266600,0.9232666015625,-0.26615795081555843,0.15937193904966115,0.08827887969464063
1683688223205236500,0.933236572265625,-0.44009939022660255,0.21679098557829857,0.16103315026015042
1683688223215207400,0.94320751953125,-0.4671668453723192,0.17546192697659133,0.05380290185809135
1683688223225177600,0.953177490234375,-0.3560048104792833,0.1999317668445408,0.16583762793242932
1683688223235148500,0.9631484375,-0.29305764817893504,-0.010759002162516117,0.25515315719842907
1683688223245118500,0.973118408203125,-0.272386031550169,-0.018698709120601415,0.21455928100347518
1683688223255089400,0.98308935546875,-0.08811141417324543,0.28145357349440453,0.4081438707783818
1683688223265059600,0.9930595703125,-0.09354805226922035,0.13592121309638022,0.32822979158610105
1683688223275030300,1.0030302734375,0.04433130915760994,-0.11295154865831136,0.42863194753378625
1683688223285000400,1.01300048828125,0.5919312891602516,-0.16636603572070596,0.39747839211821556
1683688223294971400,1.022971435546875,-0.8275690140277147,-0.503122832633555,0.008313362576067447
1683688223304941300,1.03294140625,-0.13667349276840687,-0.5685765709273517,-0.4625128820866346
1683688223314911500,1.042911376953125,0.04571662603616714,-0.12310352483838796,-0.6335010246500372
1683688223324882400,1.05288232421875,-0.1331026485443115,-0.019529314725846052,-0.7780404284879565
1683688223334852400,1.062852294921875,0.01651449694931507,0.1501525675445795,-0.5216948466345668
1683688223344823300,1.0728232421875,0.4194517389953136,0.4544947030648589,-0.31733810295462606
1683688223354793500,1.08279345703125,0.18009470134377478,-0.23072803325504063,-0.48421325724124903
1683688223364764400,1.092764404296875,0.5047568635761738,-0.19637831214666365,-0.00239157131165266
1683688223374734300,1.102734375,0.6010434008985758,-0.11775953346192836,0.30337592083662746
1683688223384705500,1.11270556640625,0.26314649403989315,-0.21146716020703316,0.24853490810245274
1683688223394675500,1.122675537109375,0.08920739271640778,0.06849471342489123,0.12116261990368365
1683688223404646400,1.132646484375,-0.21664777771532534,0.3628703123345971,0.06513152060210704
1683688223414616300,1.1426162109375,-0.2310673482120037,0.4636266885474324,0.1035080130085349
1683688223424587500,1.15258740234375,-0.3006570172667503,0.3023008389510214,0.0374161229416728
1683688223434557400,1.162557373046875,-0.21349428212046623,0.3182119631797075,0.1383230135411024
1683688223444528400,1.1725283203125,-0.013005027523636817,0.45195466319322586,0.13292816876024008
1683688223454498600,1.18249853515625,-0.02877075193226337,0.032127515014261004,0.3798232007011771
1683688223464469500,1.192469482421875,-0.04174304623007774,-0.19305618198662994,0.3113409083664417
1683688223474439400,1.202439453125,-0.14115268400907516,-0.027209201703965662,0.11358254003822803
1683688223484409300,1.212409423828125,-0.16364859345555305,0.06346154156327247,-0.08524638013094663
1683688223494380500,1.222380615234375,-0.2627688928991556,0.05606894709393382,-0.13475596870929002
1683688223504350500,1.2323505859375,-0.27218612506389617,-0.02090016468763351,-0.08776654625833034
1683688223514321400,1.2423212890625,-0.20701719506084917,0.04714782788306474,-0.14585866974294184
1683688223524291600,1.25229150390625,-0.06023322716653347,0.043958822583407164,-0.05300649078339338
1683688223534262500,1.262262451171875,0.00256020587682724,-0.07915157038718462,0.08119652021825313
1683688223544232400,1.272232421875,-0.2121837840437889,-0.002572042445093393,0.17126374463438987
1683688223554203400,1.282203369140625,-0.21342647758126257,0.09226210411190987,0.1306228144273162
1683688223564173600,1.292173583984375,-0.3064168959677219,0.09260638750493526,-0.32076603157669303
1683688223574144300,1.302144287109375,-0.40584173131585116,0.23986820204406975,-0.2497586046785116
1683688223584114400,1.312114501953125,-0.4829366614341736,0.4021180346176028,-0.136501643332839
1683688223594085400,1.32208544921875,-0.3513222056210041,0.4161266862258315,-0.2577335290804505
1683688223604055300,1.33205517578125,-0.0993798271626234,0.43204511697813863,0.05304974540323019
1683688223614026500,1.342026611328125,0.20876023933589458,0.3453540909968316,0.2602104405879974
1683688223623996400,1.351996337890625,-0.07887655283808707,0.431959630651772,0.28723785598427054
1683688223633967400,1.36196728515625,-0.7077057862848043,0.33308775301128624,-0.11165917076021432
1683688223643937300,1.371937255859375,0.09145838651359081,0.010880144324153662,-0.9974030181199312
1683688223653908500,1.381908447265625,-0.149698394036293,0.18155045311003923,-0.8333148642033338
1683688223663878400,1.39187841796875,-0.6514052223920822,0.23533581931144,-0.19485855523347853
1683688223673849300,1.401849365234375,0.008011457020044327,0.008620528829097748,0.0336713834553957
1683688223683819500,1.411819580078125,0.2936743187725544,0.1488394391193986,0.43509588285088535
1683688223693789400,1.42178955078125,0.3520604567676782,0.2359314471170306,0.5974439151018858
1683688223703760400,1.431760498046875,0.5231581971853971,0.1873655691295862,0.5074953486293554
1683688223713730300,1.441730224609375,0.3456815693855285,0.20876959168612955,0.8309992807373404
1683688223723701500,1.451701416015625,0.3768360015839338,-0.054255906322598454,0.6535004411056637
1683688223733671400,1.46167138671875,0.37417525794208045,-0.10980009889006614,0.33996231495589013
1683688223743642400,1.471642333984375,0.06490004993379116,0.24689649324566124,0.5210840212598443
1683688223753612300,1.4816123046875,0.07237842299044132,0.4280933106124401,0.5256614121779799
1683688223763583500,1.49158349609375,0.36244448813796043,0.4176012888230383,0.34757980422228574
1683688223773553400,1.501553466796875,0.5691437032908201,0.4348733261413872,0.0848769622966647
1683688223783524400,1.5115244140625,-0.03963233768641949,0.46305385709553953,-0.15426204869002103
1683688223793494300,1.521494384765625,-0.10790449440181255,0.6276534676656127,0.19688041644990442
1683688223803465500,1.531465576171875,-0.1816138737350702,0.9480958202458918,0.21439912200570105
1683688223813435400,1.541435302734375,-0.6386889486819506,1.2979793713659047,0.14429273560047148
1683688223823406300,1.55140625,-0.8901566953659057,1.3537731547802685,0.6006614158436656
1683688223833376500,1.56137646484375,-0.9888491247862576,1.6525699311330913,1.041096613895893
1683688223843347200,1.57134716796875,-0.7014660151124,1.743001020425558,0.33659985278546806
1683688223853317400,1.5813173828125,-0.5640811592042446,1.5418448263525961,-0.3809942903071642
1683688223863288300,1.591288330078125,-0.365434902125597,1.333093354845047,-0.3199655288487673
1683688223873258200,1.60125830078125,-0.9472013556241988,1.3709908315628767,0.018061141869425774
1683688223883229200,1.611229248046875,-0.6581295622110367,1.6998001766026019,0.5144803852111101
1683688223893199000,1.62119921875,1.0624158807784319,0.04722118538022041,0.03027005057930946
1683688223903170300,1.63117041015625,1.4631377848625182,-2.925381543494761,-3.0717671597212552
1683688223913140200,1.64114013671875,1.1951789221048355,-0.6292953896537423,-3.8398669166922565
1683688223923111200,1.651111083984375,-0.48502574266791343,0.7399088507533073,-1.7741063527852297
1683688223933081300,1.661081298828125,-0.20620704772174356,0.576435906125605,-0.5219990902781486
1683688223943051300,1.67105126953125,0.765295805466175,1.338992057494819,-0.07225918052494526
1683688223953022200,1.681022216796875,1.1032798060864208,1.4778484472602604,0.6145633922070265
1683688223962993400,1.690993408203125,0.44247430266439913,1.7398785044908522,2.549920045134425
1683688223972963300,1.70096337890625,0.3263607828438282,2.83956466999948,5.079416895443201
1683688223982933200,1.710933349609375,0.547817422145605,4.751039804340898,6.803543119528889
1683688223992904400,1.720904541015625,0.175718970477581,3.143051942256093,7.7194374827414745
1683688224002874400,1.730874267578125,0.3586766600370407,1.7734797453194855,5.725137057936191
1683688224012845300,1.74084521484375,-0.3416699956566095,0.11492664812356233,4.687012153327465
1683688224022815200,1.750815185546875,0.025248423025012016,0.06407382824271916,7.253983871027827
1683688224032786400,1.760786376953125,-1.32394909440279,0.21790625334382055,1.319426648542285
1683688224042756400,1.77075634765625,-0.2193687271118164,-4.0930072727635505,-1.5857552797496317
1683688224052727300,1.780727294921875,1.0466624313294888,-10.014625226438046,-5.927983689314127
1683688224062697500,1.790697509765625,3.649159051397443,-9.489371518278121,-12.343083371573686
1683688224072668400,1.80066845703125,5.5859308318197725,-4.806544833941757,-12.904965559428929
1683688224082638300,1.810638427734375,4.13639662489593,-0.5499415746927261,-5.777679730600118
1683688224092609300,1.820609375,0.5678735372245312,0.4965469613745808,-0.9073410544008016
1683688224102579500,1.830579345703125,0.030861586731672285,-1.2373726347118614,1.0110662172913552
1683688224112550100,1.840550048828125,-0.14694675724059342,-2.2934251179382206,1.1544289785653352
1683688224122520300,1.850520263671875,0.35720132678747174,-3.5461961050510404,2.1107085436582564
1683688224132491300,1.8604912109375,1.180011748111248,-4.6827667708426715,2.981499444296956
1683688224142461200,1.870461181640625,1.4116820306524633,-3.607867548327148,3.7781338063567875
1683688224152432000,1.88043212890625,1.1371396978512405,-1.268304948592186,4.544215793764591
1683688224162402300,1.89040234375,1.4329115734249354,0.38660277783870695,4.195281944584846
1683688224172373200,1.900373291015625,0.8240810257814825,2.078161780318618,2.633017430537939
1683688224182343200,1.91034326171875,-0.19844686204902826,2.8845851304650303,2.2753233517974616
1683688224192314400,1.920314453125,0.8312795589834451,4.06769075293839,2.7292303181022404
1683688224202284300,1.9302841796875,0.11873100884258746,3.68269716386199,1.126157992848754
1683688224212255200,1.940255126953125,-0.5356617049276828,1.5843044964194297,-0.7545446943491697
1683688224222225400,1.950225341796875,-1.2554852145075797,0.5137526554584503,-2.412024901616573
1683688224232196400,1.9601962890625,-2.0160721116304394,-0.5551911657840013,-3.3408786996454
1683688224242166300,1.970166259765625,-2.5799381667792796,-1.2277654329329728,-3.2445021459519863
1683688224252137500,1.980137451171875,-2.1435586738586423,-1.3866852443009614,-2.4163719909101724
1683688224262107400,1.990107421875,-1.885901424884796,-1.801927841168642,-1.3001882795870303
1683688224272078300,2.000078369140625,-1.9708137507557868,-2.2647803304731844,-1.2780524356245995
1683688224282048300,2.01004833984375,-1.6102712968468664,-4.136617574170232,-1.8963199430465698
1683688224292019500,2.02001953125,-1.3254419633090495,-5.539075557142496,-1.8648223964989183
1683688224301989400,2.0299892578125,-1.231938188572973,-5.3605561422914265,-2.149790261724591
1683688224311960300,2.039960205078125,-1.07615053775087,-4.377314335992932,-0.7267647070199251
1683688224321930500,2.049930419921875,-0.025485300520807504,-3.701749654856324,-0.3191568428143859
1683688224331901200,2.059901123046875,-4.291071053779125,-10.973774209487438,3.71796370755434
1683688224341871400,2.069871337890625,-1.313998339883238,-2.933117398443818,8.305638703817129
1683688224351842300,2.07984228515625,2.490458386862278,10.323128865551947,-2.72671336684525
1683688224361812500,2.0898125,-2.6381729136049747,14.445594580250978,-7.549254519081115
1683688224371783200,2.099783203125,-2.493369305872917,11.92594867734909,-4.671939964140951
1683688224381753000,2.109753173828125,-2.3472189597070217,7.771504354587197,-4.1560348068237305
1683688224391724300,2.119724365234375,-3.4471196447491645,3.1268349669486284,-4.820379298026859
1683688224401694200,2.129694091796875,-2.029352448964119,-0.8851017500638961,-3.7933740455865856
1683688224411665200,2.1396650390625,1.8115595928668975,-2.401114800545573,-0.5333715481638908
1683688224421635300,2.14963525390625,3.0324738447308537,-2.205720823261142,1.5296207200735807
1683688224431606300,2.159606201171875,0.4432990630507469,0.5584475372314452,0.5665031256541609
1683688224441576200,2.169576171875,2.457372109818458,1.924999509564042,-1.9718691050276158
1683688224451547400,2.17954736328125,6.66308893917799,1.4680109438568352,0.08102028686851262
1683688224461517300,2.189517333984375,1.7226830395400523,3.0051708272635933,0.9766641814738511
1683688224471488300,2.19948828125,-0.8969698825120925,3.6606735481023787,1.5873217984139918
1683688224481458400,2.20945849609375,-0.5975836158335208,3.7711324031621216,1.8814492677815258
1683688224491429400,2.219429443359375,-0.47781624968051906,4.125127627384662,1.2239135798104106
1683688224501399300,2.2293994140625,-3.0045348674476147,4.926906366595626,1.4010630214825273
1683688224511370500,2.23937060546875,-0.256126988932956,2.542321845090389,1.4076444456994532
1683688224521340400,2.24934033203125,1.1294611260473728,0.11995032150447368,2.8900246911704537
1683688224531311400,2.259311279296875,1.4367045359671116,-1.0319050071805715,4.245466655945777
1683688224541281300,2.26928125,2.647381471455097,-3.433921725001931,5.216058239507674
1683688224551252500,2.27925244140625,7.396402044928074,-8.383968144166468,5.105933146446943
1683688224561222400,2.289222412109375,3.137088065415621,-11.395810704278945,2.9795623387545347
1683688224571193300,2.299193359375,-5.083375277680158,-11.800554703485965,0.5917798979908228
1683688224581163500,2.30916357421875,-2.664219209009409,-6.007851006755232,-0.0600444265961647
1683688224591134200,2.31913427734375,-2.947673747062683,-3.4022821396350857,-1.9008280681207774
1683688224601104400,2.3291044921875,-1.915236240440607,-3.6934383381068705,-1.4152939375393092
1683688224611075300,2.339075439453125,2.6710698055565354,-6.071262279435992,-1.1549756526626647
1683688224621045200,2.349045166015625,2.151871744173765,-5.387790186175704,-1.932156541711837
1683688224631016200,2.35901611328125,1.5046131200671196,-3.999936482617259,-1.4126413772039115
1683688224640986000,2.368986083984375,-0.7573357863724232,-2.9118764574944973,-0.18334946535602212
1683688224650957300,2.378957275390625,-2.4445056139826775,-1.3577496571958063,0.51345031151101
1683688224660927200,2.38892724609375,-3.4530607252359387,2.2633587732374667,-1.0719500173211096
1683688224670898200,2.398898193359375,-3.482117308372259,4.8406905569106335,-3.6247406494557857
1683688224680868400,2.408868408203125,-1.1999252398490905,4.283150197651982,-4.075145160597563
1683688224690839300,2.41883935546875,-3.664710256272554,4.161456831872463,-3.0701568019151684
1683688224700809200,2.428809326171875,-5.451196198159456,5.8131543640851975,-2.976375817672908
1683688224710780400,2.438780517578125,-0.3104443248528987,4.767974864789843,-4.163855417446792
1683688224720750300,2.448750244140625,-0.1814495500188321,3.6999382215201853,-3.6011905547812577
1683688224730721300,2.45872119140625,1.9098736904941498,1.1999199791520834,-3.4118557314053177
1683688224740691500,2.46869140625,0.61415356929712,-1.2913333574801682,-0.7068202356219291
1683688224750662700,2.47866259765625,-0.91096216750741,2.2802666534185407,-1.8523548368528484
1683688224760632600,2.488632568359375,-1.504862126392126,3.7496395332783456,-2.063367092899233
1683688224770603500,2.498603515625,-1.6706595684446393,-1.7893290563583373,-0.3814223795261234
1683688224780573700,2.50857373046875,-1.1609832225143908,-3.480468956643343,0.49087706251200286
1683688224790544400,2.51854443359375,-0.8402456133145838,-0.12219488556087016,-0.25193733695708215
1683688224800514600,2.5285146484375,-1.2617349225521086,1.5878163039326667,0.2945805103646591
1683688224810485500,2.538485595703125,-1.6764122867524622,3.254462983474135,0.06684906510971486
1683688224820455400,2.548455322265625,-0.4849101534642279,5.2218490978688,0.2613578570574522
1683688224830426400,2.55842626953125,0.8178185313206165,5.11000434140861,0.14200652435943484
1683688224840396300,2.568396240234375,2.0619372062265873,3.6158424727290868,-0.0112989542581141
1683688224850367500,2.578367431640625,1.9506734645247459,3.2181413777709005,-0.6682626875601708
1683688224860337400,2.58833740234375,1.0652874906919896,3.387648634126782,0.28969927766174075
1683688224870308600,2.59830859375,0.44207741230130193,1.7600334037691354,1.9045280916824936
1683688224880278500,2.608278564453125,0.614989508664608,0.7874135292500257,2.793558413366973
1683688224890249500,2.61824951171875,0.8091631503738462,1.3795084845393895,3.4849031396985053
1683688224900219400,2.628219482421875,1.4459515261314808,3.32549232994318,3.348586497543752
1683688224910190600,2.638190673828125,2.1457178977191447,4.755364389541745,2.638434779411554
1683688224920160500,2.648160400390625,2.613554020655155,5.83012069645524,2.196377386984974
1683688224930131500,2.65813134765625,2.9810756659269333,6.737331986996531,1.8389270538724958
1683688224940101600,2.6681015625,3.314932357484102,7.662049708133935,1.6779937107250094
1683688224950072600,2.678072509765625,3.089039197039604,5.767244261303544,1.1309036530058831
1683688224960042500,2.68804248046875,3.2818834898412224,3.8633734644860027,0.8169320308096706
1683688224970013700,2.698013671875,3.1299288413107393,1.0267518622010945,1.3191519232541322
1683688224979983600,2.707983642578125,2.5479998907268047,-3.8490018247842785,0.7856094755027443
1683688224989954600,2.71795458984375,-0.04038812448978424,-9.4675922326684,-1.4696405908852814
1683688224999925500,2.727925537109375,-14.223624730730055,-7.8094900941103695,-3.929259602847695
1683688225009895700,2.737895751953125,-13.65686061605215,-2.440619712460041,-1.3727683626294136
1683688225019866400,2.747866455078125,-7.195041268193721,-4.718589194852114,-0.577003915271908
1683688225029836500,2.75783642578125,1.54054163479954,-7.086135487794876,-2.9010867679327723
1683688225039807500,2.767807373046875,5.763150269988179,-7.0924793038636444,-2.2323852505639192
1683688225049777400,2.77777734375,3.201519621054828,-5.588709648883342,-1.5053763595245777
1683688225059748400,2.787748291015625,1.0862189273007214,-5.127284562033415,-2.1031714261516927
1683688225069718500,2.797718505859375,1.59525142236948,-3.6883559202760456,-0.904996975492686
1683688225079689500,2.807689453125,2.5257491882130503,-2.055016467052698,-0.037072862461954355
1683688225089659400,2.817659423828125,2.174742916673422,-0.05817921724617481,0.6263685424216091
1683688225099630600,2.827630615234375,0.7673042226791381,2.192496600028872,1.0419985311716795
1683688225109600500,2.8376005859375,-0.9937949106253683,3.7370980316132303,0.7012276763118803
1683688225119571500,2.847571533203125,-2.6857085717618463,4.697486785590648,0.27989757622405886
1683688225129541600,2.857541748046875,-2.851338694423437,4.706121927466988,-0.40779608025401826
1683688225139512600,2.8675126953125,-0.8032127175368368,4.548714274227619,-0.1380786833912134
1683688225149482500,2.877482421875,1.4815477401696144,3.9974247920572754,0.29416823976933953
1683688225159453700,2.88745361328125,3.753924663251638,2.6167121924251315,1.5787082838475703
1683688225169423600,2.897423583984375,3.123013947355747,1.5461936692118643,2.6686159826636313
1683688225179394600,2.90739453125,2.3129940340220925,0.9970569811612368,2.712048297154903
1683688225189364500,2.917364501953125,0.9641638886019587,0.5383499210983514,2.256078845362365
1683688225199335700,2.927335693359375,-2.6085399918854235,-1.892431118914485,-1.2240899592906236
1683688225209305600,2.9373056640625,0.09542188331708311,-2.1635849783211945,-0.34446985550820824
1683688225219276500,2.947276611328125,-0.5215105761088431,-2.1237036343097686,2.1668092010647055
1683688225229246700,2.957246826171875,-0.17179682859778403,-2.356800442522764,4.04782753008306
1683688225239217400,2.967217529296875,0.5950326892416924,-3.261869460338354,5.062835178476572
1683688225249187600,2.9771875,0.8638824364244937,-4.404885649007559,5.343384642738104
1683688225259158500,2.987158447265625,0.33894546606354414,-5.047070038589835,5.350769492292404
1683688225269128400,2.99712841796875,-0.8571136729419231,-5.66573969707191,4.849424775247275
1683688225279099400,3.007099365234375,-2.1068391548790038,-5.768529040417075,4.054860205198824
1683688225289069300,3.0170693359375,-2.360397590231895,-4.31025272411108,2.595437056945264
1683688225299040500,3.02704052734375,-1.8672996002674103,-0.6301110899507999,0.9233741975739598
1683688225309010400,3.037010498046875,-0.2988193535108119,4.050647848200798,0.09279767229333519
1683688225318981400,3.0469814453125,3.399792076385021,9.068360274881124,-0.5668979701906443
1683688225328951600,3.05695166015625,6.520263353520631,12.818579069352149,-0.6584419891610741
1683688225338922500,3.066922607421875,6.203238554298878,13.159268821799754,-0.030273996102064847
1683688225348892400,3.076892333984375,2.8552129055082798,7.556900649920106,1.3515600087754427
1683688225358863600,3.086863525390625,0.7603389137111604,1.4270418046087026,1.5703575118705628
1683688225368833500,3.09683349609375,-0.21099735073819756,-1.8874346258014438,1.3983008632928131
1683688225378804500,3.106804443359375,-0.9387691889740526,-4.346541012066602,1.5566139409393072
1683688225388775700,3.116775634765625,-1.7809915822543203,-5.91874590536952,1.7109505161702632
1683688225398745600,3.12674560546875,-3.316909210515022,-6.437642353457212,1.8354478334546087
1683688225408716500,3.136716552734375,-4.614351406264305,-6.158534320175647,1.7086892932400106
1683688225418686700,3.146686767578125,-3.9099592745721337,-4.174961625611782,0.8409948973119259
1683688225428657400,3.156657470703125,-1.6204770490407943,-0.8852619090616702,-0.19407412685751912
1683688225438627600,3.166627685546875,1.3750797083117068,1.1990706688463688,-1.3958216136977075
1683688225448598500,3.1765986328125,3.0772070126876234,2.547626381239295,-2.8791940850764512
1683688225458568400,3.186568359375,2.035244283481687,3.213435392037034,-4.037165558554232
1683688225468539400,3.196539306640625,0.06533537261113524,2.9967934595406054,-4.6110672700271005
1683688225478509300,3.20650927734375,-0.8554967392645776,1.9733990910738706,-4.490171776627004
1683688225488480500,3.21648046875,-0.9107716133713721,0.6759604024559259,-2.9685847254052757
1683688225498450400,3.226450439453125,-0.9444552717864513,-0.36458208468854425,-1.2881433292672038
1683688225508421400,3.23642138671875,-1.40614470866099,-1.1810732398629187,-0.37411855931878085
1683688225518391600,3.2463916015625,-2.010986917320639,-1.5519325051248072,0.1883700699970126
1683688225528362500,3.256362548828125,-2.2162242432273924,-1.460778654515743,0.6257469033919274
1683688225538332400,3.26633251953125,-2.069090731243044,-1.194066576948762,0.9735638773709535
1683688225548303600,3.2763037109375,-1.9157661095336078,-0.7495569690644741,1.0912461078129707
1683688225558273500,3.2862734375,-2.270384872481972,-0.26494506789445876,0.9279166633091867
1683688225568244500,3.296244384765625,-2.4841233386218544,0.014191606959700584,0.6257958571001887
1683688225578214400,3.30621435546875,-2.537109078878164,0.05210545029044151,0.5623766933739185
1683688225588185600,3.316185546875,-3.3761075416758652,0.10032675262391566,0.7901920540526509
1683688225598155500,3.326155517578125,-3.696832072198391,0.12481237458288669,1.1587450881987809
1683688225608126700,3.336126708984375,-2.7295582348823544,0.10309037211835384,1.869358870884776
1683688225618096600,3.3460966796875,-1.475908565238863,0.15049918902516365,2.8296088009133933
1683688225628067600,3.356067626953125,-1.0156431698180735,0.3086176208823919,3.867113527797162
1683688225638037500,3.36603759765625,-1.2336650123655795,0.4185977525144815,4.727814411576092
1683688225648008700,3.3760087890625,-1.7067933964908122,0.42544484193027016,5.11809880053699
1683688225657978600,3.385978515625,-2.267022848702967,0.3084393417060375,4.7119861433252686
1683688225667949300,3.39594921875,-2.602145322412252,0.1318710609227419,3.529307806353271
1683688225677919700,3.405919677734375,-2.2456863384246826,-0.0009656301617622375,2.0518740773737427
1683688225687890400,3.415890380859375,-1.0666422663018107,0.18150339909791946,0.6340510597482323
1683688225697861400,3.425861328125,1.0260220866218208,0.5266150596410035,-0.7591536494493484
1683688225707831600,3.43583154296875,3.1679777091979977,1.0448200183331966,-2.107190014143288
1683688225717802500,3.445802490234375,4.379960174326598,1.1299398494750261,-3.0170415900602934
1683688225727772400,3.4557724609375,4.230838118873536,0.4911871879070997,-3.16242504350692
1683688225737743600,3.46574365234375,3.2970100395634767,-0.7443091315388679,-2.702663798215985
1683688225747713800,3.4757138671875,1.9770771950647235,-1.7924240997642278,-1.7943723112225531
1683688225757684700,3.485684814453125,-0.14193652786314487,-2.3767501746177673,-0.6569938361793756
1683688225767654700,3.495654541015625,-3.063557842041552,-2.659869197106361,0.4320815034657717
1683688225777625900,3.5056259765625,-5.643653537470102,-2.8343922357976434,1.2449953846752644
1683688225787595800,3.515595703125,-6.471237164545059,-3.0500580167382956,2.0970453444868324
1683688225797566700,3.525566650390625,-5.853807861512899,-3.832144798007607,3.0988129875570536
1683688225807536600,3.53553662109375,-4.319864894326031,-5.170630367285013,4.099426784417033
1683688225817507800,3.5455078125,-2.320627013118565,-6.969398867639899,5.017630009093881
1683688225827477800,3.555477783203125,-0.10154811111241578,-8.951480446863174,6.034962885564565
1683688225837448700,3.56544873046875,2.79122354067862,-11.472823801332712,6.782550600382685
1683688225847419000,3.5754189453125,5.756327145969867,-13.617645042473077,6.540810466986894
1683688225857389600,3.5853896484375,6.726062989485263,-14.148845676338672,5.055508196589351
1683688225867359700,3.59535986328125,5.265329927676916,-11.660232040560246,2.7567192135304213
1683688225877330700,3.60533056640625,2.976165974314511,-6.48313335404396,1.2546721445590256
1683688225887300600,3.615300537109375,0.9888511706128716,-2.175197090181708,0.23844635254740715
1683688225897271600,3.625271484375,0.9885887202844024,1.3605430873066187,-1.2584645225793123
1683688225907241500,3.635241455078125,2.369976734960079,4.521127763643861,-3.1237568746775386
1683688225917212700,3.645212646484375,4.112554561537504,6.741627053841948,-5.608758749699592
1683688225927182600,3.6551826171875,5.091634571981429,8.025023773103952,-8.829249905467034
1683688225937153500,3.665153564453125,4.4230803541287775,7.853978055134415,-11.528838534021377
1683688225947124700,3.675124755859375,2.0202502740979194,5.592508456644415,-12.16935294456482
1683688225957094700,3.6850947265625,-0.446374232712388,2.7402894722551108,-8.386889584571122
1683688225967065600,3.695065673828125,-0.3093614249870181,0.9422674063533544,-2.5099130289167166
1683688225977035800,3.705035888671875,0.6176736331820487,-0.8869108453124761,0.34093057546615596
1683688225987006700,3.7150068359375,1.4749015801534056,-2.1616326752096415,2.073883080086112
1683688225996976600,3.7249765625,2.4027815647140143,-2.1595880176395177,2.903819992288947
1683688226006947800,3.73494775390625,3.5983716979682443,-0.40319443167746066,1.4942530540943144
1683688226016917800,3.744917724609375,3.116971744582057,2.330670560488105,-2.1494576687693594
1683688226026888700,3.754888671875,1.6247756230175494,4.614170204478502,-5.267646972447634
1683688226036859000,3.76485888671875,1.1775859822690486,6.213613233318925,-7.722848167967796
1683688226046829800,3.774829833984375,1.476625919727981,6.717984312447905,-9.622150341695546
1683688226056799700,3.7847998046875,2.7039783879458903,5.829745433402061,-10.231749389493466
1683688226066770700,3.794770751953125,2.847287665466964,4.066569639953971,-8.361482756114006
1683688226076740900,3.804740966796875,2.1838763634607194,2.408570961770415,-4.751230650737881
1683688226086711600,3.814711669921875,1.4625933027222753,1.378125505748391,-1.7091338221371173
1683688226096681500,3.824681396484375,1.3656705133229494,0.8040840935438871,0.20559096165001392
1683688226106652700,3.834652587890625,1.9456733181498944,0.8522738316953181,1.071018873950839
1683688226116622600,3.84462255859375,2.3971698623120785,1.8311779010504483,0.5737865606606006
1683688226126593500,3.854593505859375,3.218606657195091,3.5346325085073707,-1.1240022761195898
1683688226136563700,3.864563720703125,3.4878222420156,5.238173040682077,-2.936852493318915
1683688226146534700,3.87453466796875,2.9565199013411996,6.608208178955316,-4.333506173926591
1683688226156504600,3.884504638671875,2.108905878150463,7.5384735973477355,-5.3498529619693755
1683688226166475800,3.894475830078125,2.1574770168349144,8.574192025336624,-6.208906663063168
1683688226176445700,3.90444580078125,2.809750546494126,9.123830817690491,-6.703951695442199
1683688226186416600,3.914416748046875,3.7413796544551845,9.247059137952327,-6.916611280304193
1683688226196386600,3.924386474609375,4.62892704410553,8.742892641484737,-6.9533765381217
1683688226206357800,3.934357666015625,4.9872670195341104,7.699661353647708,-7.02128161509037
1683688226216328700,3.94432861328125,4.90916203559041,7.072128005230426,-6.959059844455123
1683688226226298600,3.954298583984375,3.541376137548685,6.78455667950809,-7.0633496554911135
1683688226236269800,3.964269775390625,1.1275681519076228,6.5884232820332045,-7.08775052177608
1683688226246239700,3.97423974609375,-0.7659132067121565,6.778168439775705,-6.889690540152788
1683688226256210700,3.984210693359375,-1.7694002209208906,7.72875300809741,-6.4191328832983965
1683688226266180900,3.994180908203125,-1.8273777781151235,9.352673475590347,-5.459807374638319
1683688226276151600,4.004151611328125,-1.7043861892186105,11.509707132571934,-4.222941520404816
1683688226286121700,4.014121826171875,-2.0583811211802066,13.082359769642352,-2.2553677744835614
1683688226296092700,4.0240927734375,-3.8931183221474286,12.072708095324039,-0.027409254320710896
1683688226306062600,4.0340625,-4.931730425751209,8.400654490551352,1.300859456846863
1683688226316033500,4.044033447265625,-2.7398025655210017,4.165456715163589,1.2300300168640912
1683688226326003700,4.054003662109375,0.7788005992054938,-0.07741466359198093,0.15150047502219677
1683688226335974700,4.063974609375,3.7580771067559717,-3.995381888052821,-0.8038124369956553
1683688226345944600,4.073944580078125,3.8910184272587296,-7.2367761311173435,-0.5535350691400468
1683688226355915800,4.083915771484375,2.85737563650012,-10.124150600039957,1.015004287392646
1683688226365885700,4.0938857421875,2.143330710321665,-11.671417451441288,3.1136621816426513
1683688226375856600,4.103856689453125,2.6374995443880556,-11.14434471116066,4.634135134142637
1683688226385826600,4.11382666015625,1.5671803431391715,-10.041335538709163,5.093338453289866
1683688226395797800,4.1237978515625,-1.060101904747635,-9.430921082875132,4.715374908980727
1683688226405767700,4.133767578125,-3.258254776972532,-9.640188687211275,3.8282878303185104
1683688226415738600,4.143738525390625,-3.8445840083420273,-10.36700892381072,3.1591137270018455
1683688226425708800,4.153708740234375,-3.2763609270274636,-11.285044975227116,2.815681690108776
1683688226435679700,4.1636796875,-2.2777390346370634,-12.480836476272344,2.7006062811642884
1683688226445650700,4.173650634765625,-1.7897851295627654,-13.309902450859546,2.9536516524285075
1683688226455620900,4.183620849609375,-1.862775400841236,-12.93797701767087,3.3862601023778316
1683688226465591600,4.193591552734375,-2.9149942972540854,-12.505440171653031,3.8807282116517423
1683688226475561700,4.203561767578125,-4.284116412335634,-12.088534610009193,4.138933742158114
1683688226485532700,4.21353271484375,-4.291761958652734,-11.670521963906287,4.01491982447654
1683688226495502600,4.223502685546875,-2.949018147408962,-10.786390520179271,3.480307628601789
1683688226505473500,4.2334736328125,-1.6464169614613056,-9.485128473880886,2.975657732531428
1683688226515443700,4.243443603515625,-1.5801368553459643,-8.472346684843302,2.609753167067468
1683688226525414700,4.25341455078125,-2.2059460103191433,-8.004521083301306,2.196542368288338
1683688226535384600,4.263384521484375,-2.217077791316807,-8.29107008023858,1.795456307066977
1683688226545355800,4.273355712890625,-1.5979659420251846,-9.103798083487153,1.7463839408621191
1683688226555325700,4.28332568359375,-0.9877170520164072,-9.556779751640558,2.202267760197818
1683688226565296600,4.293296630859375,-0.761039170935005,-9.635093994420766,2.5946806856200095
1683688226575266600,4.3032666015625,-1.131015954273939,-9.597213468837737,2.667607682403922
1683688226585237800,4.31323779296875,-2.0738332495950162,-9.566503273275494,2.480704177828133
1683688226595207700,4.323207763671875,-2.9086534037947653,-9.579394319030643,1.985619690221548
1683688226605178600,4.3331787109375,-3.2074142320513723,-9.71045289452672,1.3049804822996258
1683688226615148800,4.343148681640625,-2.93993935341835,-9.940267027807234,0.6634034109607339
1683688226625119700,4.35311962890625,-2.370285508648306,-10.262301179623604,0.30970410094484685
1683688226635089700,4.363089599609375,-1.8546644289694725,-10.63517704540491,0.14343085807412861
1683688226645060900,4.373060791015625,-1.3087632157087326,-10.958443369364737,-0.04095730267986655
1683688226655030800,4.38303076171875,-0.9859878901362419,-11.193116048592328,-0.1286003686890006
1683688226665001700,4.393001708984375,-1.3739771538972854,-11.259804150986671,0.11077815014198422
1683688226674972700,4.40297265625,-2.0134487773895264,-10.998118377149105,0.7671176140658557
1683688226684942800,4.41294287109375,-2.5330606802701947,-10.209498979240655,1.7760099944494663
1683688226694913500,4.42291357421875,-2.7798388078331944,-9.109836194607615,2.8528815399512646
1683688226704883500,4.432883544921875,-3.087700641912222,-8.025678437620401,3.8288881342992185
1683688226714854700,4.442854736328125,-3.5361341452419754,-6.812774473732709,4.866377955874801
1683688226724824600,4.452824462890625,-4.0967175254583355,-5.141428238198161,6.166432379949092
1683688226734795500,4.46279541015625,-4.478031549239159,-2.8271856654196976,7.725518263959884
1683688226744765200,4.47276513671875,-3.002321867573261,-0.2252677220225334,9.764161103838681
1683688226754736400,4.482736328125,3.0219504048898815,2.811771238666773,12.548050648367404
1683688226764706300,4.492706298828125,18.28720103408694,6.66661302165091,16.234254943567514
1683688226774677500,4.502677490234375,26.3412311214447,8.320970712983607,17.86142359920144
1683688226784647400,4.5126474609375,8.028977479165793,7.961426622462272,15.76241601473093
1683688226794618400,4.522618408203125,-8.285879525858164,8.00699127280712,10.971323893725872
1683688226804588300,4.53258837890625,-11.090762758576869,9.06137523829937,6.622842853507399
1683688226814559500,4.5425595703125,-7.727562921530008,13.780055618566275,3.193074741053581
1683688226824529400,4.552529296875,0.2873325485303998,14.287744443941115,-1.321000181469321
1683688226834500400,4.562500244140625,1.194584755603969,10.808258653116226,-8.56757523754537
1683688226844470500,4.572470458984375,-1.7964099545300005,8.492249655187129,-17.320936081552503
1683688226854441500,4.58244140625,-0.7585131595887243,5.2253872088670725,-25.418738675141334
1683688226864411400,4.592411376953125,2.4643922177135944,-0.9375234266966581,-32.18008106780052
1683688226874382600,4.602382568359375,3.350050140355527,-5.004697462284565,-30.390686544990537
1683688226884353300,4.612353271484375,2.5344360602766276,-1.5389327382981777,-18.698574680566786
1683688226894323500,4.622323486328125,1.595050346839428,1.33077514103055,-10.300352385598421
1683688226904294400,4.63229443359375,-0.728859341211617,0.4945172091126442,-5.438863955330849
1683688226914264300,4.642264404296875,-1.6400369050353765,-0.5949474221110344,-1.1511410429358482
1683688226924235300,4.6522353515625,-1.5714005911827087,-1.331207687228918,2.205767000490427
1683688226934205200,4.662205078125,-0.9225704799756407,-1.3112339897364378,4.424844148930907
1683688226944176400,4.67217626953125,2.339588026437163,-1.041723221361637,5.237251834183931
1683688226954146300,4.682146240234375,4.5629093883186576,-1.849757513836026,2.888084663018584
1683688226964117200,4.6921171875,3.8676971729040144,-2.362155247554183,-1.338697750723362
1683688226974087400,4.70208740234375,1.4745882764205336,-1.5863181743294,-3.5777889286667106
1683688226984058400,4.712058349609375,-0.6695268622770905,-1.3210270694762467,-5.282034394240379
1683688226994028300,4.7220283203125,-0.8194155181884765,-1.3618898257404566,-6.79865651653111
1683688227003999500,4.73199951171875,-0.05917611932903528,-0.8433709787935018,-6.923726665267348
1683688227013969400,4.741969482421875,0.5970356265619396,0.07633914331495761,-5.56698647737503
1683688227023940400,4.7519404296875,0.6275324716344476,0.6081184538513421,-3.9494022271662947
1683688227033910500,4.76191064453125,1.0774468611717223,0.34428806920051575,-2.8335528623640536
1683688227043881500,4.771881591796875,1.2669731154665351,-0.10839724635481834,-2.578908239209652
1683688227053851400,4.781851318359375,1.8757517867922782,-0.24397183797061442,-3.059955725896358
1683688227063822600,4.791822509765625,1.90585904802531,-0.22147417495846747,-3.9064164873987433
1683688227073792500,4.80179248046875,1.841333676622808,0.03443243095576763,-4.669065577748418
1683688227083763500,4.811763427734375,1.6629796814665196,0.49042146423161026,-5.022645791429281
1683688227093733400,4.8217333984375,1.6559011213824153,0.967160440069437,-5.0331993341475725
1683688227103704600,4.83170458984375,1.5175933054104447,1.233304362359643,-4.9604994241178035
1683688227113674500,4.841674560546875,0.8833584135279059,1.305595691588521,-4.904094815328717
1683688227123645200,4.851645263671875,1.0336506818041205,1.2133528766989707,-5.070954772046208
1683688227133616400,4.861616455078125,1.7396213148593902,1.153938564699888,-5.299941806852817
1683688227143586300,4.87158642578125,1.9721160655260086,1.2809598475039004,-5.5489142295897
1683688227153557200,4.88155712890625,2.438866439051926,1.6347212629705667,-5.809263786387443
1683688227163527400,4.89152734375,2.738757440382242,2.4638567956626414,-6.009248014071583
1683688227173498400,4.901498291015625,3.1548394106835125,3.7307922094672916,-6.272358852276206
1683688227183468300,4.91146826171875,3.4333144067585466,5.1957367514908315,-6.551980680298805
1683688227193439500,4.921439453125,3.7643805908143517,6.618284167289733,-7.096382156521082
1683688227203409400,4.931409423828125,4.124048599976301,7.761641132220626,-8.009234667819738
1683688227213380400,4.94138037109375,3.950125280743837,8.359730359488726,-8.70864667301178
1683688227223350300,4.951350341796875,3.8818390955030915,8.401004034641385,-9.249473213356733
1683688227233321500,4.961321533203125,4.051945486795902,8.21841225578487,-9.775131995186209
1683688227243291400,4.97129150390625,3.6198753815069793,8.000170486876367,-10.431520266687869
1683688227253262300,4.981262451171875,3.325393838004768,7.900254068619012,-11.236350794684887
1683688227263232500,4.991232421875,2.9799951772138473,7.8947689152061935,-11.911000114542245
1683688227273203500,5.001203369140625,2.3483695910468696,7.876028558900952,-12.187766553133725
1683688227283173400,5.01117333984375,0.7163970422625541,7.64820413813293,-11.659164703589678
1683688227293144600,5.02114453125,-1.2404404978498815,7.04539665017128,-10.11521559843421
1683688227303114500,5.031114501953125,-2.8284727826207874,5.772223803281784,-7.89781544329524
1683688227313085400,5.04108544921875,-2.8217700701117514,4.633296345230937,-5.573926505771279
1683688227323055600,5.0510556640625,-2.683364638984203,4.37849273212254,-3.2322301088780163
1683688227333026300,5.0610263671875,-2.8113071282863613,4.336345781266689,-1.4093018575176597
1683688227342996500,5.07099658203125,-1.7133273283042012,3.396626890352368,0.2528606623470783
1683688227352967400,5.080967529296875,0.8336194001078605,0.6096645142495631,1.5935769132860005
1683688227362938400,5.0909384765625,2.5710347293555733,-2.8264029906094073,2.6128140159428117
1683688227372908300,5.100908203125,2.5252958914875983,-6.316562735661864,3.8560295314639803
1683688227382879500,5.11087939453125,0.26763854476213456,-8.977894991058111,5.708958076551556
1683688227392849400,5.120849365234375,-2.258864968949556,-10.443729759919643,7.5086524595797055
1683688227402820400,5.1308203125,-1.530365985482931,-11.287297722589969,8.554369134491681
1683688227412790300,5.140790283203125,3.189171303874254,-10.860454119777678,8.686607275161146
1683688227422761500,5.150761474609375,7.4333929281949995,-8.459045889243484,8.150779566016793
1683688227432731400,5.1607314453125,4.412219060635566,-6.426280416965485,6.1184758660316465
1683688227442702300,5.170702392578125,-2.208249903347343,-6.435188530564308,3.9307700074106453
1683688227452672500,5.180672607421875,-6.155120712339878,-7.618031118187308,3.4414068200603127
1683688227462643500,5.1906435546875,-6.883413944101333,-8.837826595154404,2.909637154135108
1683688227472613400,5.20061328125,-6.410944900667667,-10.076998388242721,2.0268144549190996
1683688227482584600,5.21058447265625,-5.601198543578386,-11.031104116427898,0.9718176182255148
1683688227492554500,5.220554443359375,-3.30238501060009,-12.09918810597062,-0.3362123147726059
1683688227502525400,5.230525390625,0.5873884580988437,-12.995738301765918,-1.9236286596022545
1683688227512495400,5.240495361328125,2.7908874405920505,-13.119824115639924,-3.454554763185978
1683688227522466300,5.25046630859375,2.6139935811161994,-12.419320223557948,-4.026351026812195
1683688227532436500,5.2604365234375,1.7733739468574523,-10.898282038390636,-2.1953006976641714
1683688227542407400,5.270407470703125,1.4360428571879862,-9.623943654853106,0.4781370060674846
1683688227552377300,5.28037744140625,0.8268004408080131,-9.135511903133988,2.164562445051223
1683688227562348300,5.290348388671875,-0.5035119050163775,-8.957596299394964,3.482889461788535
1683688227572319500,5.300319580078125,-1.8227800750613212,-8.904465597710013,4.571391969981789
1683688227582289400,5.310289306640625,-2.823852137082815,-8.870276912382245,5.369486467722058
1683688227592260400,5.32026025390625,-3.3346634783923625,-8.754603537544607,5.844714454475045
1683688227602230300,5.330230224609375,-3.1870027276635167,-8.56809663107097,6.165830906924605
1683688227612201500,5.340201416015625,-2.3676854091525077,-8.30254073780179,6.399858858507871
1683688227622171400,5.35017138671875,-1.0999511000551283,-7.984629803395271,6.154342713704705
1683688227632142300,5.360142333984375,-0.01382284671254456,-7.939786453062295,5.009077869325876
1683688227642112500,5.370112548828125,0.1876302114151418,-8.277228601890801,3.5512463741779325
1683688227652083500,5.38008349609375,-0.5058301188308746,-8.794495987471938,2.4144461374141275
1683688227662053400,5.390053466796875,-1.218656901391223,-9.410755077680944,1.5437415998846291
1683688227672024600,5.400024658203125,-1.536662455278635,-10.014157608926295,0.9148030608445405
1683688227681994500,5.409994384765625,-1.5561960077881811,-10.491155527961254,0.45661491008922456
1683688227691965400,5.41996533203125,-1.3893991794347762,-10.733395427572727,0.04106558535993099
1683688227701935400,5.429935302734375,-0.7669337819315493,-10.723105504226684,-0.361165846504271
1683688227711906600,5.439906494140625,0.3715957628428936,-10.57866897624135,-0.8047066093564033
1683688227721876500,5.44987646484375,1.1538530783735215,-10.365426038533448,-1.17921533703655
1683688227731847200,5.45984716796875,0.8986964871089905,-10.186683920842409,-1.1816640453629195
1683688227741817600,5.469817626953125,-0.3138381320096552,-9.924058235806227,-0.5069435599654912
1683688227751788800,5.479788818359375,-1.1530185272455216,-9.421962700393795,0.8175447558805345
1683688227761758700,5.4897587890625,-1.5041291359424591,-8.850839805984496,2.1524572889767586
1683688227771730000,5.49972998046875,-1.9508501362659036,-8.432835927709936,3.229730401016772
1683688227781699800,5.509699951171875,-2.517263391679525,-8.160548680359124,4.027909654431045
1683688227791670800,5.5196708984375,-2.941402996230125,-7.85167386984527,4.651366254928708
1683688227801642000,5.52964208984375,-2.971916207915544,-7.317453011375665,5.372901244601607
1683688227811612000,5.53961181640625,-2.506802787941694,-6.582296908107399,6.267807180321216
1683688227821582800,5.549582763671875,-2.1919836820706724,-5.561417737331986,7.327356565752625
1683688227831553000,5.559552978515625,-2.5644439527884124,-4.180473667031526,8.363924888569116
1683688227841524000,5.56952392578125,-2.7360058035865427,-2.4022400051832196,9.285685513466596
1683688227851494000,5.579493896484375,-0.8157420903727411,0.10355448249876499,10.010524220860004
1683688227861465000,5.589465087890625,8.418979836314916,5.125431627643108,10.219696548128127
1683688227871435000,5.59943505859375,16.700907994198797,11.114807651031017,8.985555734944343
1683688227881406000,5.609406005859375,6.877875014674663,15.468663370025157,6.708419780766963
1683688227891375900,5.6193759765625,2.274158399671316,22.457644305491446,4.875128248563408
1683688227901346800,5.629346923828125,-4.172964022053778,27.86613182725906,1.534888431343436
1683688227911317000,5.63931689453125,-6.4069894410401576,23.93285597450733,-5.468948127949237
1683688227921288000,5.649287841796875,-0.0771687260068953,13.009708374929428,-13.499162455433606
1683688227931257900,5.6592578125,2.619367383109033,5.332066545388102,-18.35298897277117
1683688227941228800,5.669228759765625,4.841956046801805,0.46915714240670203,-20.17011087594032
1683688227951198700,5.67919873046875,5.257842202270031,-1.984666335019469,-20.5008497277379
1683688227961170000,5.689169921875,2.3318276215687392,-2.86054549870789,-19.70533414057493
1683688227971139800,5.699139892578125,0.2173395593717694,-2.1206296336919066,-15.382590183681248
1683688227981110800,5.70911083984375,-0.44118572415858504,1.4921470217257737,-9.845761528682708
1683688227991081000,5.7190810546875,0.13578677306175232,2.721791692534089,-5.383500380027294
1683688228001052000,5.729052001953125,0.9065931586429476,1.8825322407126426,-0.8737193553060293
1683688228011021800,5.739021728515625,2.3062279008880258,0.41304362551867957,2.646902163505554
1683688228020993000,5.748992919921875,3.587038695310056,-0.19151567454636095,4.2044326347678895
1683688228030964000,5.7589638671875,3.0548563569307325,-1.0741443124949932,2.4911545524328944
1683688228040934000,5.768933837890625,4.126715188837051,-2.9151375051170585,-2.559279994153976
1683688228050905000,5.778905029296875,4.5794320685744285,-1.5235247412860393,-7.432377029150724
1683688228060875000,5.788875,3.7602164568722247,0.09536825343370436,-9.43267640210986
1683688228070846000,5.798845947265625,2.159448609168827,-0.616095424079895,-9.113483611199259
1683688228080815900,5.80881591796875,0.9070143066644668,-1.7223790881574153,-7.356450558289885
1683688228090786800,5.818786865234375,0.7089739065244793,-2.4080530753761527,-5.276014987820386
1683688228100757000,5.828757080078125,1.2081129302188753,-2.460686933454871,-3.9847394980072974
1683688228110727700,5.838727783203125,0.6488143291160464,-1.0633733276337385,-3.6675165458649395
1683688228120697900,5.84869775390625,1.135356321565807,1.2798890034019947,-3.544277704209089
1683688228130668800,5.858668701171875,1.6202394408926366,3.1757237932801243,-3.18945888864398
1683688228140638700,5.868638671875,1.3747726881891489,4.153092323631048,-3.0293507442742587
1683688228150610000,5.87860986328125,1.0309300246685742,4.150920824810862,-3.6535078942567107
1683688228160579800,5.888579833984375,1.8727675102844834,3.4986399886280295,-4.607207379728555
1683688228170550800,5.89855078125,2.385905833236873,2.473081135603785,-5.039150936028361
1683688228180521000,5.90852099609375,2.115213453862071,0.9024456835746765,-4.898595633390546
1683688228190492000,5.918491943359375,2.4895298738405107,-0.9024649727970361,-4.5417947040975095
1683688228200461800,5.9284619140625,1.4667761413648723,-2.242816920468211,-4.265584730345011
1683688228210433000,5.93843310546875,0.9797150934770703,-2.9237814148217436,-4.432123200023174
1683688228220403000,5.94840283203125,0.8972907850295305,-2.355486437314749,-4.8814440075814725
1683688228230374000,5.958373779296875,1.1282511657357215,-0.4460825562894344,-5.617988350337743
1683688228240343800,5.96834375,2.3449565677329898,2.1234522898972035,-6.543216943606734
1683688228250315000,5.97831494140625,3.744901691101491,4.812091069892048,-7.626952675789594
1683688228260285000,5.988284912109375,5.162493822580576,7.4075424476236105,-8.619344587749243
1683688228270255900,5.998255859375,6.11757336423397,9.454191483825445,-9.257640737721323
1683688228280227000,6.00822705078125,6.420709923356771,10.464253492510318,-9.413403546363115
1683688228290197000,6.018197021484375,6.450099683970213,10.355858584243059,-9.088308253410458
1683688228300167700,6.028167724609375,7.090100884294509,9.394338780409097,-8.629955413612723
1683688228310138000,6.03813818359375,6.879798091691732,8.214408280840516,-8.432722530463337
1683688228320108800,6.04810888671875,6.302752236974239,7.67709296348691,-8.417254912218452
1683688228330078700,6.05807861328125,5.788217491227388,7.764814501559734,-8.694003815153241
1683688228340050000,6.0680498046875,4.885145200186968,8.246000519934297,-9.046130322894454
1683688228350019800,6.078019775390625,2.6942390842199324,8.78701352276206,-9.331043243062496
1683688228359990800,6.08799072265625,-0.08950681405439972,8.56261498478949,-9.244283828020095
1683688228369960700,6.097960693359375,-2.533835756295919,7.191870821464061,-8.381060147765279
1683688228379932000,6.107931884765625,-2.947688944631815,6.636289779579639,-6.93064331278801
1683688228389901800,6.11790185546875,-3.4202632020056245,6.413295847707986,-4.898964174441993
1683688228399872800,6.127872802734375,-4.619854095333815,5.954874034327268,-2.0723278134681284
1683688228409843000,6.137843017578125,-5.132787251102924,5.299828994128108,0.7123067042089999
1683688228419814000,6.14781396484375,-4.718476966649294,3.7850270730018614,2.154246510481089
1683688228429783800,6.15778369140625,-4.576133027029037,1.2750497466772794,2.722674028326571
1683688228439755000,6.167755126953125,-3.7186534433841705,-2.1556611995846033,3.1079625086963176
1683688228449725000,6.177724853515625,-3.4666333235144613,-5.581261670964956,4.134274810436367
1683688228459695900,6.18769580078125,-2.5981577140808105,-8.168916111209988,5.8839785433709615
1683688228469666000,6.197666015625,1.0394657978236674,-9.430435345184803,6.784932527083158
1683688228479637000,6.207636962890625,4.7795127423703665,-10.256793814378977,6.97687607165277
1683688228489608000,6.21760791015625,5.871601876878738,-10.114798249804974,7.113646010532975
1683688228499578000,6.227578125,3.3921430229365823,-9.674280341905355,6.4765656660914415
1683688228509548800,6.237548828125,-0.19695348168611526,-9.608831425917147,5.307319642144441
1683688228519519000,6.24751904296875,-3.14535086684823,-10.041794972914456,4.853616673979163
1683688228529490000,6.257489990234375,-4.664684586185216,-10.751969195139408,4.530385129071772
1683688228539459800,6.2674599609375,-5.187985991233587,-11.489697779244183,3.933840793158114
1683688228549430800,6.2774306640625,-5.062426013153791,-12.009219665753841,3.0178251416534185
1683688228559400700,6.287400634765625,-4.378590347278118,-12.178836227703094,1.7857836388364434
1683688228569372000,6.297371826171875,-2.874518494480848,-12.063518242174386,0.4547014776833355
1683688228579341800,6.307341796875,-0.736501234266907,-11.51626429913044,-1.0682371342778205
1683688228589312800,6.317312744140625,0.8601694803159683,-10.485027400469779,-2.547490187638998
1683688228599283000,6.327282958984375,1.1029062965989112,-9.62333692113161,-3.6870489293307065
1683688228609254000,6.33725390625,0.21131635355949402,-9.300368703335524,-4.2655023127585645
1683688228619223800,6.347223876953125,-0.41684952060766517,-9.625160629427432,-3.2182121049195525
1683688228629195000,6.357195068359375,-0.6770352651458234,-9.72130454340875,-0.6847007582724094
1683688228639165000,6.3671650390625,-0.993431264944747,-9.607034021106362,1.0908100544832646
1683688228649135900,6.377135986328125,-1.3209201019704342,-9.598043489921093,2.192167952596396
1683688228659106000,6.38710595703125,-1.4570961666107176,-9.541721883240342,3.053216188508272
1683688228669077000,6.397076904296875,-1.3205261342167853,-9.494096208712458,3.6584354137867687
1683688228679047000,6.407046875,-0.8538706724327058,-9.61656698860526,4.051552980346978
1683688228689018000,6.41701806640625,-0.29450784698724747,-9.838866508471964,4.218763065676391
1683688228698988800,6.42698876953125,-0.20646014569997787,-10.087166731035708,3.992026440145075
1683688228708959000,6.436958984375,-0.718091059764102,-10.378822111201286,3.2892841214865443
1683688228718930000,6.446929931640625,-1.3445723418451845,-10.67113449397087,2.525529700243473
1683688228728899800,6.45689990234375,-1.6296388451397419,-10.913168641877174,1.934693805104494
1683688228738870800,6.466870849609375,-1.4892939703822135,-11.04381980561614,1.4610820213764906
1683688228748840200,6.476840087890625,-1.0353311091717332,-11.093958924269675,1.098698177384585
1683688228758811100,6.48681103515625,-0.5180969682730734,-11.063369724738598,0.8871903929062187
1683688228768781300,6.49678125,-0.08492175128646194,-10.832398238116502,0.9402177803471684
1683688228778752000,6.506751953125,0.0771052323166281,-10.425983675348759,1.181032761722058
1683688228788722000,6.516721923828125,0.13677461505532265,-10.040274046957492,1.3156395312190055
1683688228798693000,6.526693115234375,-0.0011655366480350495,-9.697534376242757,1.189277296845615
1683688228808663000,6.5366630859375,-0.4519617505211383,-9.308333983126282,0.8465497549600899
1683688228818634000,6.546634033203125,-0.9789070650298147,-8.931324378541111,0.44391909464523194
1683688228828604200,6.556604248046875,-1.5921617857910693,-8.596018657219409,0.18873539617806673
1683688228838575000,6.5665751953125,-1.6866753220915793,-8.22581347195208,0.3285693988040089
1683688228848545000,6.576544921875,-1.341682465622574,-7.83863786266148,1.1131510656289756
1683688228858516200,6.58651611328125,-0.8003601045846939,-7.515700040003657,2.1799327404014766
1683688228868486100,6.596486083984375,-0.3617079905569553,-7.200027824434637,3.1728365474060176
1683688228878457000,6.60645703125,-0.7558557769477366,-6.871058904919028,4.018001423878967
1683688228888427300,6.61642724609375,-2.0246645834088324,-6.475789421021938,4.811458032685518
1683688228898398200,6.626398193359375,-3.175679369616508,-5.977649929758906,5.709504604518413
1683688228908369200,6.636369140625,-3.7706770606100557,-5.372668020367622,6.700464437848329
1683688228918339300,6.64633935546875,-3.745945939457416,-4.873616674956679,7.689076831269264
1683688228928310300,6.656310302734375,-3.9361654367133974,-4.5818566653728485,8.602513279935717
1683688228938280200,6.6662802734375,-2.932937950223684,-3.721296651369333,9.798728559350966
1683688228948251100,6.676251220703125,5.584066206991672,-1.094984271427989,10.94921026159525
1683688228958221300,6.68622119140625,14.456898064553737,3.3195775529414413,10.953950734120607
1683688228968192000,6.69619189453125,6.8389365044713015,7.758104190266132,8.955845071813464
1683688228978162200,6.706162109375,-1.3244924074992537,13.959313284564017,6.259864696884155
1683688228988133000,6.716133056640625,-0.1947895816504955,24.00801146099567,3.3273703987747427
1683688228998103000,6.72610302734375,1.8582427258476615,31.744390141665935,-2.935273699694872
1683688229008074000,6.736073974609375,-1.035460653835535,30.565439885306358,-11.380295155239105
1683688229018044200,6.746044189453125,-3.5384511900126934,26.087651497173308,-19.911646986758708
1683688229028015000,6.75601513671875,-2.311877451082319,16.531218951535223,-24.99242348011732
1683688229037985000,6.765985107421875,1.8112275844335555,6.1475645978719,-23.434558077812195
1683688229047956200,6.775956298828125,5.169845938909053,1.7534405813753604,-15.64050111515522
1683688229057926100,6.785926025390625,1.3953352914854884,-0.5792237832784652,-10.043397731935977
1683688229067897000,6.79589697265625,-0.7989727418795227,-2.8834739543527363,-7.564895155805349
1683688229077867000,6.805866943359375,0.2844445720039308,-4.922928695136308,-6.070093235656619
1683688229087838200,6.815838134765625,0.6238520295560359,-6.275106105157732,-4.865395959100127
1683688229097808100,6.82580810546875,-0.1477592426672578,-6.475769547277689,-3.845159177881479
1683688229107779300,6.835779296875,0.34918986976742744,-5.456798255950212,-2.6067700596034524
1683688229117750300,6.845750244140625,2.2057412815272808,-2.3494231917530297,-0.7640303155750036
1683688229127720200,6.85572021484375,3.988999493539333,3.1927064922630786,0.6190636262357234
1683688229137691100,6.865691162109375,4.122987985007464,7.059276122441887,-0.7988952927291393
1683688229147661300,6.875661376953125,2.723053967554867,6.358143284806609,-2.646883458805084
1683688229157632000,6.885632080078125,-0.27590631463080645,3.9381156939983364,-2.797406028705835
1683688229167602200,6.895602294921875,-2.386722994838655,1.3329407946318388,-2.3319372194230557
1683688229177573000,6.905572998046875,-2.5541470151796934,-1.2455898434370756,-2.244189377865195
1683688229187543000,6.91554296875,-0.8511991882011294,-2.5426269655168054,-2.185902608591318
1683688229197514000,6.925513916015625,1.2728417152389884,-2.259721585778892,-2.1515087560802697
1683688229207484200,6.935484130859375,0.7370069918319583,-1.625763172750175,-2.805143929481506
1683688229217455000,6.945455078125,-0.4090735528439283,-0.7469596460476517,-3.631053485864401
1683688229227425000,6.955425048828125,-0.4701473224878311,-0.058981181278824804,-3.7119039691239593
1683688229237396200,6.965396240234375,0.20948358517438173,0.3252671423882246,-3.016018969014287
1683688229247366100,6.9753662109375,1.2272495923653244,0.638244127523899,-1.8695687142431734
1683688229257337000,6.985337158203125,1.2473805262461304,0.6734691701620816,-0.6219090787947178
1683688229267307000,6.99530712890625,0.2314347202196717,0.1334165367990732,0.033901100558042525
1683688229277278200,7.0052783203125,0.14151976375579833,-0.38342122519314287,0.1339350077152252
1683688229287248100,7.015248046875,0.8086956789925694,-0.8925923980802297,-0.6603811405301093
1683688229297219000,7.025218994140625,0.9263207724198699,-1.5522864331290125,-1.7803747655302284
1683688229307189200,7.035189208984375,1.756362021780014,-1.5618500880271196,-2.2142016513586045
1683688229317160200,7.04516015625,1.3818521250560878,-1.881960578304529,-2.624885562008619
1683688229327131100,7.055131103515625,1.173276886898279,-2.9246137739926574,-2.8772832830190658
1683688229337101300,7.065101318359375,2.1097148564457893,-3.295525646224618,-3.189843504047394
1683688229347072000,7.075072021484375,2.329073354424536,-3.3588729137584563,-3.656129474931955
1683688229357042200,7.085042236328125,2.44144155023694,-2.590657129192352,-3.7394963249266144
1683688229367013000,7.09501318359375,1.2539397386312483,-1.3892507108747958,-3.771317696601152
1683688229376983000,7.104983154296875,0.45716801392734047,-0.5583151430234312,-3.8205683419823644
1683688229386954000,7.1149541015625,0.2823720035135746,-0.6551181054353714,-4.097911703678966
1683688229396924200,7.124924072265625,0.21672873399704692,-1.300774555042386,-3.791278534612059
1683688229406895000,7.13489501953125,1.347412679837644,-1.9125985854133962,-2.673918765246868
1683688229416865000,7.144864990234375,2.267056458711624,-2.141221170821786,-1.9268425070822237
1683688229426836200,7.154836181640625,2.2891534319683906,-1.8844687617331741,-1.6478677447915075
1683688229436806100,7.16480615234375,1.3407011995002627,-1.0052230442211032,-1.5768068341404198
1683688229446777000,7.174777099609375,0.47903176295012234,-0.0735664637312293,-2.2256424983054397
1683688229456747000,7.1847470703125,0.8437646542862057,0.6831611276149749,-3.1470769599884747
1683688229466718200,7.19471826171875,1.8147671567365526,1.106786060641706,-3.784294667074084
1683688229476688100,7.204688232421875,2.8551123677432537,1.2882289617240428,-3.8427912797063586
1683688229486659000,7.2146591796875,2.7488386894136667,1.079467261083424,-3.944408656662702
1683688229496629200,7.224629150390625,2.318029105579853,0.5757955623954534,-4.38945894729495
1683688229506600200,7.23460009765625,2.327685261067003,-0.07663081973791122,-5.089160290822386
1683688229516570000,7.244570068359375,2.5389804257079955,-0.6918851168185473,-5.766096844834089
1683688229526541300,7.254541259765625,2.1680407886862754,-0.9817103589475155,-6.4461027232885355
1683688229536512300,7.26451220703125,2.248444258830696,-0.8451467562943696,-7.473951733076572
1683688229546482200,7.274482177734375,2.7833658129155636,-0.0650286447495222,-8.631200445237756
1683688229556453000,7.284453125,2.6652187414407726,1.2154004568785428,-9.671237905469535
1683688229566423300,7.29442333984375,2.276615583565086,2.612162858557701,-10.452177270269393
1683688229576394000,7.30439404296875,2.505032855659723,4.029733070465922,-10.869428868871926
1683688229586364000,7.314364013671875,3.0602643534541127,5.287693735176324,-11.014232476603985
1683688229596335000,7.324335205078125,3.0353508614718914,6.262347745871543,-10.55166055780649
1683688229606305000,7.334304931640625,3.2615666779994963,7.143311080956459,-9.54724327701032
1683688229616276200,7.344276123046875,3.3463398876607418,7.919681822666526,-8.387629004761576
1683688229626246100,7.35424609375,3.8785315783903,8.854404220467805,-7.311649878054856
1683688229636217000,7.364217041015625,3.348493266302347,9.883044672894478,-6.477641186368465
1683688229646187000,7.37418701171875,1.0750593815132974,10.193018969082832,-5.437390375646949
1683688229656158200,7.384158203125,-1.5690895377613603,9.025586132037638,-4.37948057411611
1683688229666128100,7.394128173828125,-3.53723567674309,7.22549895029962,-3.7703880145356057
1683688229676099000,7.40409912109375,-4.296502431178093,7.037882621279358,-2.6476357384771108
1683688229686069200,7.4140693359375,-4.011695309472084,7.816193975663185,-0.8823609269231557
1683688229696040200,7.424040283203125,-3.7370997851788994,8.238856493398547,1.2012528351910412
1683688229706010000,7.434010009765625,-3.1616146039068695,7.932571114856004,3.2485014447212217
1683688229715981300,7.443981201171875,-1.2053051062565296,6.183946409329772,4.837408466500044
1683688229725952300,7.4539521484375,2.6547289116084576,2.446624505832791,4.994110601818561
1683688229735922200,7.463922119140625,5.263259551143646,-1.862622256106138,5.219744819065928
1683688229745893000,7.47389306640625,4.640709836357832,-5.586895877459645,6.823308142706751
1683688229755864300,7.4838642578125,4.185367284291982,-7.820673751425742,8.869867747059464
1683688229765835300,7.493835205078125,6.4386149978816505,-7.016066510790586,9.744894093310833
1683688229775805200,7.50380517578125,4.297803576904535,-4.3117824178963895,8.431555240249633
1683688229785776400,7.5137763671875,-2.647256383770704,-3.7071722644269465,5.127136677995324
1683688229795746300,7.523746337890625,-8.171116836124659,-4.6819046010553835,2.270819172246009
1683688229805717200,7.53371728515625,-9.96936920365095,-6.815075736412406,0.9654393153652548
1683688229815687200,7.543687255859375,-7.807136224460601,-9.47745837764442,0.22207754767909646
1683688229825658400,7.553658447265625,-3.819151460921764,-11.915232053023576,-0.3365615666016936
1683688229835628300,7.563628173828125,0.5448690937340259,-13.720561811590194,-0.9703937229022384
1683688229845599200,7.57359912109375,3.6821103038847443,-15.253203925311565,-1.434313403046876
1683688229855569400,7.5835693359375,3.896894041293859,-16.27612892270088,-1.5764818399697542
1683688229865540400,7.593540283203125,2.084216842573881,-16.72731669317484,-1.410576699759066
1683688229875510300,7.60351025390625,0.43283970142193134,-16.67141652677655,-0.7710286500297486
1683688229885481500,7.6134814453125,-0.3757435301721096,-15.641408293128013,0.48984614856168623
1683688229895452200,7.6234521484375,-0.4204010025441646,-12.913662076103687,2.2899920747496187
1683688229905422300,7.63342236328125,-0.5417127120623365,-10.07187096222639,3.584873333969712
1683688229915393300,7.643393310546875,-1.1408546267211437,-8.315964867520332,4.147015926326811
1683688229925363200,7.65336328125,-1.9431214417099951,-6.9974804682642215,4.3937820711910724
1683688229935334100,7.663334228515625,-2.528722358804941,-5.9496782192498445,4.4453328102082015
1683688229945304000,7.673303955078125,-2.4471032292604447,-5.362608398646116,4.526209304691851
1683688229955275300,7.683275146484375,-1.5904536666989326,-5.364785742685198,4.672283370751142
1683688229965245200,7.6932451171875,-0.3966108885686844,-6.067977266415953,4.683725386741757
1683688229975216400,7.70321630859375,0.6087842242836952,-7.286919341424107,4.277067078346014
1683688229985186300,7.713186279296875,0.8031775000929832,-8.635421277803182,3.422722285595536
1683688229995157200,7.7231572265625,0.41467977535314854,-9.723963533484936,2.600180744341016
1683688230005127200,7.733127197265625,0.11968085691332817,-10.464290901911259,2.1489796759940685
1683688230015098400,7.743098388671875,-0.1311223614472896,-11.010115104413032,2.250671579491347
1683688230025068300,7.753068359375,-0.6023346097528934,-11.322420473897456,2.8504738942876457
1683688230035039200,7.763039306640625,-1.3830185384869575,-11.232605178415774,3.703396253019571
1683688230045009400,7.773009521484375,-2.2465794878721237,-10.788123043060303,4.630019515517354
1683688230054980400,7.78298046875,-2.9364778147876263,-10.145751021951437,5.428596828338503
1683688230064951300,7.792951416015625,-3.281324686914682,-9.212042769628763,5.74414454074502
1683688230074921500,7.80292138671875,-2.7851579570293423,-8.11536922993958,5.137834013098478
1683688230084892200,7.81289208984375,-1.528792598686367,-7.363852943500876,3.8205125201418992
1683688230094862300,7.8228623046875,-0.33006803986392913,-7.167147299095988,2.5734260084062814
1683688230104833300,7.832833251953125,0.3711608785569668,-7.437740017488599,1.5005891252480446
1683688230114803200,7.84280322265625,0.3261830881893635,-8.039633897736667,0.5723819545596838
1683688230124774100,7.852774169921875,-0.32288156242594124,-8.762402813118696,-0.17256050644665955
1683688230134744000,7.862744140625,-0.9403086735010147,-9.413222344577312,-0.7065010866701602
1683688230144715300,7.87271533203125,-1.17952308781147,-9.860673851132391,-1.0594789505437017
1683688230154685200,7.882685302734375,-1.152192159423977,-10.158118336093425,-1.2317378436952828
1683688230164656000,7.89265625,-1.0331623137652874,-10.295646984386444,-1.1310247221022844
1683688230174626300,7.902626220703125,-1.00634342655316,-10.23308443748951,-0.6043585167959332
1683688230184597200,7.91259716796875,-1.375146343807131,-9.943423446011543,0.23387334554344413
1683688230194567200,7.922567138671875,-2.1043246878400446,-9.407896181118488,1.133796817164123
1683688230204538400,7.932538330078125,-2.6206816805779933,-8.6225378308326,2.0629928527593613
1683688230214508300,7.94250830078125,-2.6698735815092918,-7.607662284386158,3.141975545196235
1683688230224479200,7.952479248046875,-2.8806057054400442,-6.459066834279894,4.3343817877173425
1683688230234450400,7.962450439453125,-3.9194729528486727,-5.259482370692491,5.487752781662345
1683688230244420400,7.97242041015625,-5.612539437282085,-3.974044500991702,6.49350335688889
1683688230254391300,7.982391357421875,-5.786476785039901,-2.393682604718208,7.207779169213771
1683688230264361500,7.992361572265625,-3.2430259359195825,0.2630178992241621,7.304822662383318
1683688230274332200,8.002332275390625,10.010533573210239,5.561570297545194,6.618444910809397
1683688230284302300,8.01230224609375,21.038687023138998,12.798750917810201,5.0532431742668145
1683688230294273300,8.022273193359375,5.73065962074995,19.696435379326342,3.4271360103845594
1683688230304243200,8.0322431640625,-5.451221917122602,28.231687140893936,0.7660761421889066
1683688230314214100,8.042214111328125,-5.455007280880213,32.97783186666965,-6.049211191147566
1683688230324184000,8.05218408203125,-1.4826152232706546,20.335135433924197,-15.62239262701273
1683688230334155300,8.0621552734375,3.238543529808521,5.958267768418788,-16.957659234243632
1683688230344125200,8.072125244140626,1.4816776501595974,0.6478261948615313,-12.060221538716554
1683688230354096000,8.08209619140625,-0.07042202822566032,-1.413838624164462,-8.386230828401446
1683688230364066300,8.09206640625,-0.8644729496635496,-3.1304654324054715,-6.011092180633544
1683688230374037200,8.102037353515625,-0.480250198829174,-4.7954216746419664,-4.184287672361731
1683688230384008200,8.11200830078125,0.47448462103977795,-3.8096611635208126,-3.376246365624666
1683688230393978400,8.121978271484375,6.64423343206048,0.41947804248034953,-4.744996140262484
1683688230403949300,8.13194921875,4.236704380558431,7.397811911725998,-9.763543264201283
1683688230413919200,8.141919189453125,-4.2461704203009605,13.968991798013448,-16.807147185736895
1683688230423890400,8.151890380859374,3.693082948797941,14.65303555368185,-23.317139320611954
1683688230433860400,8.1618603515625,8.759818057322502,10.043096118640898,-17.64646684331298
1683688230443831300,8.171831298828126,3.7880256702959536,3.9580265553876757,-3.4056910712957382
1683688230453801200,8.18180126953125,-0.3138254186585545,-2.806947764033079,1.8712638277232645
1683688230463772400,8.1917724609375,-2.198879871325195,-6.903134543615579,3.6648096249938007
1683688230473742300,8.201742431640625,-4.384285928571224,-9.818735574591159,4.568266531437635
1683688230483713300,8.21171337890625,-0.7916682640850543,-11.818549794381855,5.218377622365951
1683688230493683500,8.221683349609375,3.9901147613048553,-9.808408241844177,3.656626318538189
1683688230503654100,8.231654052734376,4.482034062878787,-3.383406466512382,-1.8484639668941496
1683688230513624000,8.2416240234375,3.0866286287665363,1.5721929106041788,-8.902423862749338
1683688230523595300,8.25159521484375,1.9060520863793788,2.532447224546969,-15.366068087947367
1683688230533565200,8.261565185546875,4.2839851871714,3.793015441407263,-16.39585887945294
1683688230543536000,8.2715361328125,2.6014208075299856,5.658750568836927,-11.02850883923769
1683688230553507300,8.28150732421875,1.073652145063877,4.363389563275874,-5.024570037490129
1683688230563477200,8.291477294921876,1.1756298797652125,1.9104379002481697,-0.9932324544370174
1683688230573448200,8.3014482421875,1.1086132760688663,0.3820990366786718,1.3384300396978854
1683688230583418400,8.31141845703125,1.3815689242005347,-0.8372381751269101,0.26528525963425637
1683688230593389300,8.321389404296875,1.169944235344231,-2.078778743173182,-3.9940205365717407
1683688230603359200,8.331359130859376,1.1647989814102648,-2.7713240774661303,-7.207962124565244
1683688230613330400,8.341330322265625,1.758519492074847,-2.2102719106942414,-7.5787150068432085
1683688230623300400,8.35130029296875,0.7464473126113415,-1.5220584681257605,-6.141770232379436
1683688230633271300,8.361271240234375,0.40058775631040333,-0.9993722723662852,-4.074693325176835
1683688230643241200,8.3712412109375,0.8286644080489873,-0.2733013928294182,-2.2038082676380872
1683688230653212400,8.38121240234375,0.6452253647133708,0.15048574502170084,-0.9852344414204358
1683688230663182300,8.391182373046876,0.09387772261500359,0.060813949663937085,-0.6854115368902682
1683688230673153300,8.4011533203125,0.17800649689286946,-0.37321196586787697,-1.06232586440742
1683688230683124200,8.411124267578124,0.5663432589173316,-0.6913076091915369,-1.8820880040764807
1683688230693094100,8.42109423828125,0.6898574103832245,-0.8415303193628787,-2.8536054703116416
1683688230703065000,8.431065185546874,0.6255272692918777,-0.7331336575299501,-3.3645161803424357
1683688230713035300,8.44103515625,0.26242022559195755,-0.30469927839487787,-3.31228798045516
1683688230723006200,8.451006103515626,-0.0036243279770016667,0.3107145931616425,-2.903362896171212
1683688230732976000,8.46097607421875,-0.16141542757600544,0.8477697982743382,-2.099633022892475
1683688230742947300,8.470947265625,-0.005193769250810146,1.1180240784928202,-1.2692811001479625
1683688230752916500,8.48091650390625,0.08395707097277044,1.263560092152655,-0.3136456781774759
1683688230762887700,8.4908876953125,0.20871391597613692,1.1207689932867884,0.6392986050128936
1683688230772857600,8.500857666015625,0.9774303435407579,0.6289245105147362,1.2993635192006825
1683688230782828500,8.51082861328125,2.5545044503152368,-0.15454057337045668,1.274049045202136
1683688230792798700,8.520798828125,3.4247301182866092,-1.334040864828229,0.22314298495352267
1683688230802769700,8.530769775390626,3.3400784891784188,-2.76330443713963,-1.5998720679074525
1683688230812739600,8.540739501953125,2.4010803137540817,-3.784548934096098,-3.9350253267675637
1683688230822710800,8.550710693359376,0.7541606634676457,-3.5841193007320165,-6.8109823296189305
1683688230832681700,8.560681640625,-0.24042908732984214,-2.428043724003434,-10.153834959685803
1683688230842651600,8.570651611328126,-0.019404994226433336,-0.6224287187546491,-13.520353712022304
1683688230852622800,8.580622802734375,1.487252819943428,1.392305422270298,-16.834204704010485
1683688230862592800,8.5905927734375,2.8880653737962243,3.513245437085628,-19.186615387141703
1683688230872563700,8.600563720703125,3.1708500497639176,5.82198824340403,-19.119364974689482
1683688230882533600,8.61053369140625,2.442068157702684,7.849805737885832,-16.56362016892433
1683688230892504600,8.620504638671875,1.8493021712839601,9.194934982961415,-12.491606876611709
1683688230902474800,8.630474853515626,1.856322279179096,10.415097539675235,-7.938589352232217
1683688230912445400,8.640445556640625,1.8670844962120055,10.865768592798709,-3.9874920115858314
1683688230922415600,8.65041552734375,2.0746318526268004,10.259661478769779,-1.0239157619923354
1683688230932386600,8.660386474609375,2.1811866859853266,8.317316282129287,0.20773264985382556
1683688230942356500,8.6703564453125,1.681642588621378,6.436750373053551,0.5588631322950124
1683688230952327700,8.68032763671875,-0.045783261531591415,5.858212818473577,1.405544843071699
1683688230962298600,8.690298583984376,-1.818393822801113,5.269422749948501,1.6251222444981335
1683688230972268500,8.7002685546875,-2.813218514865637,5.187036143162846,1.8811507232263682
1683688230982239700,8.71023974609375,-3.1217759299933907,5.540100808537006,2.3984897127389906
1683688230992209700,8.720209716796875,-3.002255232077837,6.573508621495962,3.198731159380078
1683688231002180600,8.7301806640625,-2.9601228942692277,6.84776044691801,4.0649470071882
1683688231012150800,8.74015087890625,-2.3212544973671436,4.241851388058066,4.099310172300041
1683688231022121700,8.750121826171876,-0.96622228243649,0.03779518538713455,2.8781059975787997
1683688231032091600,8.760091552734375,0.42532384589910505,-4.081037725767493,2.090183642023802
1683688231042062800,8.770062744140626,2.033985369461775,-7.689339281597733,2.7595672964379188
1683688231052032800,8.78003271484375,3.746242876577377,-10.084538720619678,4.41138231755048
1683688231062003700,8.790003662109376,5.301421231755614,-10.804777240741252,5.779830771154165
1683688231071974700,8.799974609375,4.855926119965314,-10.57150624500513,6.085511169540882
1683688231081944800,8.80994482421875,2.243745725750923,-10.174736293417215,5.794633203488588
1683688231091915500,8.81991552734375,-1.586920816397667,-9.93880338499546,4.858914488126337
1683688231101885400,8.829885498046876,-4.321999276006221,-10.040773228651284,3.1979929082334038
1683688231111856600,8.839856689453125,-4.709311663419008,-10.298267980539798,1.846393298099935
1683688231121826600,8.84982666015625,-4.319250854080916,-10.663318267261982,1.2544539717637002
1683688231131797500,8.859797607421875,-3.786710496044159,-10.719046584224701,1.0989452840134502
1683688231141767700,8.869767578125,-2.833604300290346,-10.25156468155384,1.0092577065646648
1683688231151738600,8.879738525390625,-1.459744050770998,-9.267660027432441,0.6013406302794814
1683688231161708500,8.88970849609375,-0.16660744326114654,-8.007871562772989,-0.09968202497959136
1683688231171679700,8.8996796875,0.4415898845126852,-6.8784636282175775,-0.8512892045721411
1683688231181650700,8.909650634765624,0.431416902077198,-6.431829867786169,-1.5365620636440813
1683688231191620600,8.91962060546875,0.46280455850958824,-6.8745414863377805,-2.010164641152322
1683688231201591800,8.929591796875,1.0006325746256857,-8.015657394343615,-2.098992825292796
1683688231211561700,8.939561767578125,1.4190613272488117,-9.396257765772939,-1.5121508220955728
1683688231221532700,8.94953271484375,0.7364109987001866,-10.514898807120323,-0.3364914239749312
1683688231231502600,8.959502685546875,-1.4721394219636916,-10.900804834866523,0.4845502341106534
1683688231241473800,8.969473876953124,-3.943708399438858,-10.778141747272015,0.4980887839891016
1683688231251443700,8.979443603515625,-5.614086082202196,-10.406084212136268,0.06755158735588193
1683688231261414700,8.98941455078125,-6.363785674607754,-10.138064559102057,-0.4984916657015681
1683688231271384800,8.999384765625,-5.926770221871137,-10.348782362246514,-1.1591221048176288
1683688231281355500,9.00935546875,-3.632645723491907,-11.157847166812418,-2.0126620109260083
1683688231291325700,9.01932568359375,0.5994318740487098,-12.334983067226409,-2.62857681774199
1683688231301296600,9.029296630859376,5.037219091182947,-13.300199387490748,-2.0056541779905555
1683688231311267600,9.039267578125,6.257884336721896,-13.139552898460625,-0.10070362311229109
1683688231321237500,9.049237548828126,5.332789598965644,-12.52114627482891,1.5834947874717413
1683688231331208700,9.059208740234375,3.4686920096099376,-12.316187181341647,2.6026164470553397
1683688231341178600,9.0691787109375,1.8433901707611977,-12.143356918042898,3.5871754734322425
1683688231351149600,9.079149658203125,0.7449662802733481,-11.816519165337086,4.7589609527289864
1683688231361119700,9.08911962890625,-0.09471841122284531,-11.29326335299611,5.921684296908975
1683688231371090700,9.099090576171875,-1.0035796609282492,-10.471080708181857,6.828142723256349
1683688231381060600,9.109060546875,-2.035049053170532,-9.29239407119453,7.27835317313075
1683688231391031800,9.11903173828125,-3.101525753647089,-7.563203549456596,7.056909393310547
1683688231401001700,9.129001708984376,-4.207667963427305,-5.686466258758307,5.555455029535294
1683688231410972700,9.13897265625,-5.017878430896997,-4.710957677060366,3.486098486962914
1683688231420943600,9.148943603515624,-4.597973102915287,-4.714284191134571,1.6705691136822103
1683688231430913800,9.158913818359375,-2.740768195682764,-5.716609468087554,0.1555836526826024
1683688231440884500,9.168884521484374,-0.6188869544945657,-7.262754621982574,-0.7023726085633039
1683688231450854700,9.178854736328125,0.6560707299850881,-8.523269647350906,-0.1760861963547766
1683688231460825600,9.18882568359375,1.038203084411472,-9.095369277837872,1.5759318048715591
1683688231470795500,9.19879541015625,0.9619731005594134,-9.0244264406085,2.861258615413308
1683688231480766500,9.208766357421876,0.7273578506074846,-8.17566441642642,3.6796155644595623
1683688231490736600,9.218736572265625,1.0630465798974036,-6.585994009059667,4.277469521667063
1683688231500707600,9.22870751953125,-0.9382572939291596,-4.655855383041501,4.994221660977602
1683688231510677500,9.238677490234375,-1.1481807318255304,-3.292677271056175,5.811985320305824
1683688231520648700,9.248648681640624,6.90995825215578,-0.5946954931765794,5.609989168277383
1683688231530619600,9.25861962890625,10.895359428942204,4.079648901757598,4.47418714877069
1683688231540589600,9.268589599609374,3.646117784005403,7.916527742549777,3.6653193280816074
1683688231550560800,9.278560791015625,-6.8256023911237715,9.656203417944907,3.3067928901702164
1683688231560530700,9.28853076171875,-13.121950606274604,14.251665414822101,3.1099019523262976
1683688231570501600,9.298501708984375,-5.847105733525753,25.777169835984704,2.898310288956761
1683688231580471800,9.308471923828124,9.797259071320294,33.4947362641573,0.291608618414402
1683688231590442800,9.31844287109375,-3.206247526359558,31.12698538855314,-5.920670151430368
1683688231600412700,9.32841259765625,-5.6634033630788325,27.655248019897936,-12.493397851681708
1683688231610384000,9.3383837890625,-1.969637546583265,15.604917760598658,-19.50600048575401
1683688231620353800,9.348353759765626,-4.417449362504482,4.073925847935676,-23.71545357903242
1683688231630324500,9.358324462890625,4.820423429429531,-0.2060574101179838,-21.99398283789158
1683688231640295700,9.368295654296874,3.6665865715384482,-0.385244933488965,-13.535122242087125
1683688231650265600,9.378265625,1.5386533368349073,-1.3015040383607148,-9.16029212412536
1683688231660236500,9.388236572265624,0.25440964535474775,-4.4460394971728325,-8.465231299880147
1683688231670206500,9.39820654296875,-1.3204397711075841,-7.367582193157077,-7.782655863198637
1683688231680177700,9.408177734375,0.20623320507630705,-7.872403354141116,-5.551796507027745
1683688231690147600,9.418147705078125,3.3364328261524436,-3.468793716418743,-1.5337643957495688
1683688231700118500,9.428118408203124,4.82348398604393,3.737395553255081,1.8176485573917627
1683688231710088700,9.438088623046875,4.575419033540785,9.911230318415164,3.710328682631254
1683688231720059600,9.4480595703125,2.8266414755403995,14.159182361435889,3.5589977189570665
1683688231730029600,9.458029541015625,-0.020738836646080016,13.74459033743143,-0.6608160248160362
1683688231740000800,9.468000732421874,-1.511045637332648,8.370358136487006,-6.432403868281841
1683688231749971000,9.477970947265625,-1.4201206270433961,2.2558587728708983,-9.726401574286818
1683688231759940900,9.48794091796875,0.019251812958717345,-2.4902327614128588,-11.270276445162295
1683688231769912000,9.497912109375,0.8267270102456211,-5.616312526080012,-10.74844219005704
1683688231779882000,9.507882080078126,0.6932210415974259,-7.079109534680843,-8.21359988706708
1683688231789853000,9.51785302734375,1.0006468223467468,-6.085473175618052,-5.29663575104475
1683688231799822800,9.52782275390625,1.109707647176832,-3.2467595694899556,-3.8990176093190905
1683688231809794000,9.5377939453125,1.1845194347940384,-0.2738800695002079,-4.006332905656099
1683688231819764000,9.547763916015626,1.0632143376797436,1.673335363525152,-4.400008982881904
1683688231829735000,9.55773486328125,0.8380208499372005,2.3524714734077454,-4.325512252563238
1683688231839705000,9.567705078125,0.9562962239667773,1.9100281504034995,-3.447598952698707
1683688231849675800,9.57767578125,1.253834524691105,1.073989998716116,-2.053247119292617
1683688231859646700,9.587646728515624,1.1573980575039982,0.3370306454181671,-0.8569090902805327
1683688231869617000,9.597616943359375,0.9116507342934608,-0.15161971748769282,-0.21812544905245304
1683688231879587800,9.607587890625,0.7586085827872157,-0.2886240496456623,-0.22341069597899912
1683688231889557800,9.617557861328125,0.6467009902238845,-0.3529693883061409,-0.7750842090308666
1683688231899529000,9.627529052734374,0.6424772350490093,-0.5545920308470725,-1.5960855351060628
1683688231909499000,9.637498779296875,0.42845717548877,-0.925557679092884,-2.184643548440933
1683688231919469800,9.6474697265625,0.27429420325905085,-1.3506903863340616,-2.3918781856447455
1683688231929439700,9.657439697265625,0.06859948897361755,-1.6506740343838928,-2.3337772943317887
1683688231939411000,9.667410888671874,-0.2412146482169628,-1.78309513040483,-2.0434102004110812
1683688231949382000,9.6773818359375,-0.22935908298939464,-1.7613368875831366,-1.5256290200889109
1683688231959352000,9.68735205078125,-0.1949069244198501,-1.4907389084935188,-1.0716764610767364
1683688231969323000,9.697322998046875,-0.340423210465908,-1.3577367977142334,-0.5193687417745589
1683688231979293000,9.70729296875,-0.33485037876963614,-1.4226187274694442,0.022405308553576468
1683688231989264100,9.71726416015625,-0.5863745318159461,-1.5788549988418816,0.35581951704025266
1683688231999234000,9.727234130859374,-0.7562054671682417,-1.813971914705634,0.37382454480826854
1683688232009205000,9.737205078125,-0.6487187597870826,-2.177826854163408,0.5258797311037778
1683688232019175000,9.7471748046875,-0.5847673888802528,-2.522075760397315,0.6802846953958273
1683688232029145900,9.757145751953125,-0.4788415010750293,-2.7962381539702412,0.6137035605072975
1683688232039116000,9.767115966796876,-0.702793025932461,-3.1116362287729977,0.708810532656312
1683688232049086700,9.777086669921875,-0.7561293331921101,-3.2390409579366444,0.7545745049655437
1683688232059058000,9.787057861328124,-0.6262007846392691,-3.096370855101943,0.7632236753672361
1683688232069027800,9.79702783203125,-0.6125450381219387,-2.842628733745217,1.0574410149753093
1683688232078998800,9.806998779296874,-0.4812079379454255,-2.506592360061407,1.2050760467410087
1683688232088969000,9.816968994140625,-0.5110790523350238,-2.174817150953412,1.1552262664228676
1683688232098940000,9.82693994140625,-0.8845324257433413,-1.8631734602481125,0.8192179497897625
1683688232108909800,9.836909912109375,-1.0646738888382912,-1.6422575036942957,0.5702016879111528
1683688232118881000,9.846881103515624,-0.8164369407691061,-1.531734935748577,0.3628603754624724
1683688232128851000,9.856850830078125,-0.6595008505642413,-1.5117302585959433,0.16239713208973408
1683688232138822000,9.86682177734375,-0.6915466786444187,-1.576051047337055,0.10245032064914703
1683688232148793000,9.87679296875,-0.755749832355231,-1.705266040793061,0.02026157452315092
1683688232158763000,9.886762939453124,-0.6503858162164687,-1.7294243304938077,0.34344635767936704
1683688232168734000,9.89673388671875,-1.0240765055119991,-1.6368582749992608,0.6549120614692568
1683688232178704000,9.906703857421874,-1.464508050302416,-1.4033750978171824,0.8357754090979694
1683688232188674800,9.9166748046875,-1.5125662710286676,-1.1030009891450405,1.058482340721786
1683688232198645000,9.92664501953125,-1.054393171712011,-0.8023837193667889,0.9997706240341067
1683688232208615700,9.93661572265625,-0.69230889518857,-0.6474357342392206,0.8003437379717826
1683688232218585900,9.9465859375,-0.47486470639854667,-0.6646224313616752,0.6228448983401059
1683688232228556800,9.956556884765625,-0.3552303189754486,-0.7169277881383895,0.5157175257906318
1683688232238526700,9.966526611328124,-0.3319653248526156,-0.7930413060039282,0.5988119885846972
1683688232248498000,9.976497802734375,-0.5422634412802756,-0.788586080160737,0.8464008480086922
1683688232258468900,9.98646875,-1.03662619048357,-0.7598661816328763,0.8965019727393985
1683688232268438800,9.996438720703125,-1.5150773770667612,-0.725578712105751,1.104655770614743
1683688232278410000,10.006409912109374,-1.7568857533931732,-0.6227899532824754,1.1318971210226416
1683688232288380000,10.0163798828125,-1.8197943372488021,-0.4404331522256136,0.9126829999506473
1683688232298350800,10.026350830078124,-1.7800106083929537,-0.22707506370544434,0.5300403579145669
1683688232308321000,10.036321044921875,-1.7588415636360644,0.0044803602844476695,0.1423047766536474
1683688232318292000,10.0462919921875,-2.0366018355704845,0.22801380586028097,-0.2722235344648361
1683688232328262000,10.056261962890625,-2.6946003187477587,0.32032267172336576,-0.786150377446413
1683688232338233000,10.066233154296874,-3.403247769796848,0.3056342211574316,-1.398291803203523
1683688232348203800,10.076203857421875,-3.775631468147039,0.12785890267193317,-1.9047107547730207
1683688232358174000,10.086174072265624,-4.00793449563384,-0.08801789067089558,-2.1227076090097428
1683688232368145000,10.096144775390625,-3.603820611023903,-0.18670096774101255,-1.9098484099224209
1683688232378114800,10.10611474609375,-2.7519723112642764,-0.1733493187367916,-1.240879766049981
1683688232388085800,10.116085693359375,-1.9820609748266635,0.05519581752121448,-0.42611324271112677
1683688232398055700,10.1260556640625,-1.7651966317512093,0.39983109272420403,0.16064853485673666
1683688232408027000,10.13602685546875,-2.2713481645561755,0.7726596122324466,0.4698541847601533
1683688232417996800,10.145996826171874,-2.7710020059049127,0.9928092605888843,0.42268414504528046
1683688232427967700,10.1559677734375,-2.826608742314577,0.9763602300912141,0.2149018108308315
1683688232437939000,10.16593896484375,-2.5592145277023315,0.802944860380888,0.06395940808281302
1683688232447908900,10.175908935546875,-2.3059411929011344,0.5370528670251369,0.10682663603723049
1683688232457879800,10.1858798828125,-2.247580189347267,0.23520927032232283,0.32274390752092
1683688232467850000,10.19585009765625,-2.29149049661383,0.0951882206916809,0.5576023185789585
1683688232477821000,10.205821044921874,-2.07964032843858,0.18647884942293166,0.8228934234321117
1683688232487790800,10.215790771484375,-1.9083181316152213,0.4387941528469324,1.3858257048621774
1683688232497762000,10.225761962890624,-1.4316228487886486,0.8065045986890792,1.599523546730727
1683688232507732000,10.23573193359375,-0.7835857876554131,1.2063982352554798,1.9433856456041334
1683688232517703000,10.245702880859374,-0.17256737457886337,1.4065361921966075,2.067917595810443
1683688232527673000,10.255673095703125,0.37896190769672394,1.316032329928875,1.8352390130095182
1683688232537644000,10.26564404296875,0.8062647985838353,0.8917945257008075,1.4151296868883072
1683688232547614700,10.27561474609375,1.08045364177227,0.24042320557832716,0.5797936921209097
1683688232557585000,10.2855849609375,1.2191286836214363,-0.30996085218489167,-0.1438661807514727
1683688232567555800,10.295555908203125,1.2896546106129885,-0.5284019430577754,-0.44865547551736235
1683688232577525800,10.30552587890625,1.4360931260704994,-0.414150709977746,-0.35383740331232544
1683688232587497000,10.3154970703125,1.6008181165859103,-0.11617080296576023,-0.06042202773690224
1683688232597467000,10.325466796875,1.8273522052824496,0.07057400391697884,0.0355805780775845
1683688232607437800,10.335437744140625,1.9276805653415618,0.09690788409113883,-0.04488105199486017
1683688232617407700,10.34540771484375,2.193167777288705,0.05481412472724914,-0.09886939342245459
1683688232627379000,10.35537890625,2.3690157809734345,0.02111293065547943,-0.1359257431410253
1683688232637350000,10.365349853515625,2.2224261666074394,-0.03495265543758869,-0.17116116104274987
1683688232647319800,10.37531982421875,2.0075044820323584,-0.07130407175719737,-0.13623100969791413
1683688232657291000,10.385291015625,1.939990450207889,0.06465513526201248,0.07183247954547405
1683688232667261000,10.395260986328125,1.880035017069429,0.35864451133310793,0.3195598706573248
1683688232677231900,10.40523193359375,1.8120711956508457,0.8275058856636285,0.5574240394026041
1683688232687202000,10.4152021484375,1.7062722952261566,1.330816057562828,0.7717650014802813
1683688232697173000,10.425173095703125,1.7713094155430793,1.7137153047084808,0.9841682734936475
1683688232707143000,10.435142822265625,1.9464403569996356,1.8364777610242367,1.202263035146892
1683688232717113900,10.44511376953125,2.074021319513023,1.5469693297594784,1.504692030522227
1683688232727084800,10.455084716796875,2.206786260535568,0.9604559739947318,1.854660483446717
1683688232737054700,10.4650546875,2.558149821080267,0.35552316444218157,2.029585380937159
1683688232747026000,10.47502587890625,3.0053415076553818,-0.18168693897128105,1.8338608565241097
1683688232756997600,10.48499755859375,3.0424504643440247,-0.6150771869480609,1.4161469011068344
1683688232766968600,10.494968505859376,2.3854887768685815,-0.8781061920881271,1.1433689476296305
1683688232776938500,10.5049384765625,0.9896985812224447,-0.9526689733803272,0.9847165550261735
1683688232786909700,10.51490966796875,-0.7247006140969693,-1.03944241694808,0.7867541885584592
1683688232796879600,10.524879638671875,-2.1656981710828838,-1.1046890883624554,0.4528299847230315
1683688232806850600,10.5348505859375,-2.723395036077499,-1.1954700140058994,0.10710457619577646
1683688232816821500,10.544821533203125,-2.236694345934689,-1.2333037778377531,-0.04733341358304023
1683688232826791400,10.55479150390625,-0.8416649055279791,-1.3875070820778608,0.09767010063529014
1683688232836762400,10.564762451171875,0.7017639751456678,-1.4785323378711939,0.4817138416409492
1683688232846732500,10.574732666015626,2.31758720703125,-1.0627338606864214,1.3215961015358566
1683688232856703500,10.584703369140625,3.0521310236200687,-0.5810451534867286,2.089580415433645
1683688232866673400,10.59467333984375,2.4482732959531246,-0.42145431098937985,2.3091803209528328
1683688232876644600,10.60464453125,1.300243224644661,-0.2251636771261692,2.439237318190932
1683688232886614500,10.614614501953126,0.05402611615471541,-0.27409984973073004,2.214272963029146
1683688232896585500,10.62458544921875,-0.6207565477587282,-0.5381786561846733,1.8912284651264548
1683688232906555400,10.634555419921876,-0.5249767178494483,-0.8408990357220172,1.6511802303403615
1683688232916526600,10.644526611328125,-0.2485259210783988,-1.1917916177541017,1.4342898760408163
1683688232926497500,10.65449755859375,0.09715119132772088,-1.3049077093243597,1.3342539230570196
1683688232936467500,10.664467529296875,0.7350481128491461,-0.9678554365962743,1.2276222250699995
1683688232946438700,10.674438720703124,1.5724549225412308,-0.13460779241025447,1.5240207081094383
1683688232956408600,10.68440869140625,2.2632921377420425,0.734236065813899,2.244577208139002
1683688232966379500,10.694379638671874,2.4617513478159903,1.3183417759150267,3.124820704516768
1683688232976349700,10.704349609375,2.393888356423378,1.5310826093196868,3.8900042817801235
1683688232986320400,10.7143203125,2.38116565297246,1.7099305254727601,4.501739464823902
1683688232996290600,10.72429052734375,2.285337965333462,2.0594600024580956,4.776670212420821
1683688233006261500,10.734261474609376,1.7394260845482348,2.1860849794209,4.036371485567092
1683688233016232400,10.744232421875,0.9990952089905738,2.1514736847668883,2.645546364982426
1683688233026202400,10.754202392578126,0.24557291649170218,1.988683753967285,1.0236372373118996
1683688233036173600,10.764173583984375,-0.5967758796472102,1.7298071923315523,-0.591075402983278
1683688233046143500,10.7741435546875,-1.2307201910853385,1.3425164322286844,-1.9171159167073666
1683688233056114400,10.784114501953125,-1.4454910690128802,0.7585545145124196,-2.815668246105313
1683688233066084600,10.794084716796876,-1.215521452909708,0.026244448325037955,-3.215837777003646
1683688233076055600,10.8040556640625,-0.6147299809455872,-0.6370142934679984,-3.002679887230694
1683688233086025500,10.814025390625,0.10039631072878837,-0.9664853172868489,-2.5276167356505987
1683688233095996700,10.82399658203125,0.5157704250216484,-1.1360773293167352,-2.3464079355850815
1683688233105967600,10.833967529296874,0.589592105622962,-1.385186530175805,-2.2180473670013248
1683688233115937500,10.8439375,0.5224116896670311,-1.7018746447890996,-1.923385936887562
1683688233125908700,10.85390869140625,0.4578418946009129,-1.880548957940936,-1.47229139765501
1683688233135878700,10.863878662109375,0.6142706928707659,-1.826021833461523,-0.8766621307596564
1683688233145849300,10.873849365234374,0.8147640391208231,-1.61119717952013,-0.19892332045435904
1683688233155819500,10.883819580078125,0.1645873356103897,-1.382829153394699,0.5311787142947316
1683688233165790500,10.89379052734375,-0.7372412389792502,-1.2333809347271918,1.2043921561300754
1683688233175760400,10.903760498046875,-1.4551438634991645,-1.061147468277812,1.672423509377241
1683688233185731300,10.9137314453125,-2.1021838764190672,-0.7883890962839126,1.875880673868954
1683688233195702500,10.92370263671875,-2.2827577395819127,-0.726557786270976,1.6985832020282745
1683688233205672400,10.93367236328125,-1.5964403398931026,-1.1898363920331,1.4410302902117371
1683688233215643400,10.943643310546875,-0.12212079741135239,-1.8748820182204244,1.5445052777335047
1683688233225613600,10.953613525390624,0.88667513686046,-2.31803495079875,2.289998650620878
1683688233235584500,10.96358447265625,0.5091245572663843,-2.2145336597919463,3.260017110469937
1683688233245554400,10.973554443359374,-0.206454300481081,-2.0336217968463894,3.811290518288314
1683688233255525600,10.983525634765625,-1.0753834989011286,-2.000299372959137,3.9695015968650575
1683688233265495600,10.99349560546875,-3.173365831977129,-1.7424387103676795,3.8718563384100793
1683688233275466500,11.003466552734375,-3.4367572406888005,-1.483541105943918,3.656047934128344
1683688233285437700,11.013437744140624,-0.9267267228722572,-1.8112872056663036,3.205617119501531
1683688233295407600,11.02340771484375,1.6578841118931769,-2.6903257101684805,2.6661405324608087
1683688233305378600,11.033378662109374,1.6691253446146845,-4.010529188302159,2.2374749749183653
1683688233315348700,11.0433486328125,-0.9842097745478152,-4.913474638092517,1.9851316144436597
1683688233325319400,11.0533193359375,-2.510190384553373,-6.002826456591486,1.7051093889266251
1683688233335289600,11.06328955078125,-2.5002032435461876,-7.59034933053553,0.41188159600198265
1683688233345260500,11.073260498046874,-1.6687971355736255,-8.570116154199837,-1.7599205910444258
1683688233355230500,11.08323046875,-0.4662149514749646,-9.007477643895148,-4.618528399688005
1683688233365201400,11.093201416015624,0.4677496136963367,-8.69327783896625,-7.851798373007774
1683688233375172600,11.103172607421875,-0.01638663278594613,-6.776382725402712,-10.58528693307638
1683688233385142500,11.113142578125,-0.6216600724697112,-2.5548031410008667,-11.548571993017196
1683688233395113500,11.123113525390625,-0.4032853248313069,2.6303940962970254,-10.914814655518532
1683688233405083400,11.13308349609375,-0.700061701272428,6.823510387280583,-9.164987003943324
1683688233415054600,11.1430546875,-1.036622391091287,9.496562306565046,-6.4646729837238786
1683688233425024500,11.1530244140625,-0.24635142658352852,10.34634490596652,-3.0395757856905457
1683688233434995500,11.162995361328125,0.6219102478384971,8.36735018684268,0.6053051499962806
1683688233444966700,11.172966552734374,1.0322282477855682,4.565616893711685,3.4200001671552656
1683688233454936600,11.1829365234375,1.5537974222138524,1.254554071137309,5.2935599968612195
1683688233464907500,11.192907470703124,2.3732228772744537,-1.1831588139653204,6.31720454069674
1683688233474877700,11.202877685546875,3.2279531622111794,-3.032427082979679,5.959943008154631
1683688233484848400,11.212848388671874,3.2959666679903865,-4.397667388191819,3.6955811953544613
1683688233494818600,11.222818603515625,2.679859845733642,-4.420978705674409,0.7165934416174888
1683688233504789500,11.23278955078125,1.4071930486701427,-3.201461461126804,-1.5766607036679983
1683688233514759400,11.242759521484375,0.7529248380623758,-1.7677894247233867,-3.1873002493053675
1683688233524730400,11.25273046875,0.9978159828349947,-0.3159522015541792,-4.72033107008338
1683688233534701600,11.26270166015625,1.56497771852836,0.9857856455624103,-6.1913692528069015
1683688233544671500,11.27267138671875,0.38248292142972345,2.0508470724135637,-7.26399205482304
1683688233554642400,11.282642333984375,-0.9720224931478499,2.971636806452274,-8.017664642512798
1683688233564612600,11.292612548828124,-0.9549113454796373,3.4484137762129303,-8.407998423573375
1683688233574583600,11.30258349609375,-0.4172751256085932,3.6888691304951906,-8.537780987784267
1683688233584553500,11.312553466796874,1.3777951047502457,4.194437310454249,-8.25710702036023
1683688233594524700,11.322524658203125,2.1444493390880526,5.487483901593089,-7.469612827089429
1683688233604494600,11.33249462890625,2.486474285662174,7.7259356125891205,-6.630051177451014
1683688233614465500,11.342465576171875,2.542459792256355,10.166661708033084,-6.100260410383344
1683688233624436700,11.352436767578125,1.8605600628793237,12.154788997161388,-5.703424407821894
1683688233634406700,11.36240673828125,1.7628490457117556,13.55363171224594,-5.4958016480833285
1683688233644377300,11.37237744140625,1.9673346764683721,13.856089056932925,-6.106213181307911
1683688233654347500,11.382347412109375,1.752020193183422,13.05136608096361,-7.588096583172678
1683688233664318500,11.392318359375,1.397027190095186,11.777356198728084,-8.841970855352281
1683688233674288400,11.402288330078125,1.3304828800857067,10.968260999023913,-9.592758827516436
1683688233684259300,11.41225927734375,1.117643116351217,11.028483120274544,-9.587889175653457
1683688233694229500,11.4222294921875,0.6410345619600266,11.619646347671747,-8.367322714313865
1683688233704200400,11.432200439453124,-0.049130233871936796,11.739496715933084,-5.995605857688188
1683688233714171400,11.44217138671875,-0.36213702962398525,11.565042650824784,-3.100928080014884
1683688233724141600,11.4521416015625,-0.45462943536043166,10.526292307794094,0.02968494416773319
1683688233734112500,11.462112548828125,0.33858890771083533,8.318145718690753,2.474253101992607
1683688233744082400,11.47208251953125,1.2707925276242196,5.502952104359865,2.8794378307044504
1683688233754051800,11.4820517578125,0.4513383579257875,2.283883090350032,1.265543521054834
1683688233764021800,11.492021728515626,-1.7410475482702255,-0.5585165108144283,-1.0467854731872677
1683688233773992700,11.50199267578125,-2.5628748037755487,-2.9117431865036485,-2.709805486664176
1683688233783964000,11.5119638671875,-1.876804949107021,-5.258287607949971,-3.4409172829777
1683688233793933800,11.521933837890625,-0.6820190449077635,-7.582917719230055,-3.102916623483598
1683688233803904800,11.53190478515625,0.24928455742597577,-9.658334584754705,-1.9050170442432164
1683688233813874700,11.541874755859375,0.5011877729177475,-11.190980205607413,-0.2407103519566357
1683688233823846000,11.551845947265624,0.10712284250482916,-12.16276655191183,1.470216052685678
1683688233833815800,11.56181591796875,-0.8223429499424993,-12.657854254388809,2.8103900134414435
1683688233843786800,11.571786865234374,-2.158328372967243,-12.898146527063846,3.7553532347500322
1683688233853757000,11.5817568359375,-2.751896323418617,-13.250290570461749,4.479059723243117
1683688233863727900,11.591727783203124,-3.0102748724043367,-13.376954125869274,5.033088859510421
1683688233873698800,11.60169873046875,-2.9627041429340837,-13.510160819309949,5.8320595555633306
1683688233883669000,11.6116689453125,-2.9435902771413325,-13.602258088248968,6.24210107665658
1683688233893639700,11.6216396484375,-1.991869398266077,-13.461906199228762,5.9789785480141635
1683688233903609900,11.63160986328125,-0.655517918407917,-12.888733386552333,5.271881249016523
1683688233913580800,11.641580810546875,1.1911899985991419,-11.89181961325407,4.613878528055548
1683688233923550700,11.65155078125,2.693464008194208,-10.314746821653843,3.9465027063325047
1683688233933521700,11.661521728515625,1.041453245313838,-8.745448755708336,3.225118815568089
1683688233943492900,11.671492919921874,-2.423260581380129,-7.66004596709609,2.4677102562204003
1683688233953462800,11.681462890625,-4.539600408923626,-6.7640183338701725,1.754637828335911
1683688233963433700,11.691433837890624,-4.316307201844453,-6.021346448144317,1.29227662967965
1683688233973404000,11.70140380859375,-2.6510008309960362,-5.78688887297213,1.0648286410085857
1683688233983374800,11.711374755859374,-0.9999206269640475,-6.496203848019242,0.9970333080247044
1683688233993344800,11.7213447265625,-0.07792370909266173,-8.020600111442803,1.3400425894610584
1683688234003316000,11.73131591796875,-0.012286577055975793,-9.397220473325252,1.929240215873718
1683688234013287000,11.741286865234375,-0.5529284815490245,-10.398312409090995,2.135727834102511
1683688234023256800,11.7512568359375,-1.0039128384053706,-11.183749669831991,1.9108546643555164
1683688234033228000,11.76122802734375,-1.3329425481975077,-11.814057159137725,1.4400743046611546
1683688234043198000,11.771197998046874,-1.7062872005343437,-12.214578572213648,0.9602541678123175
1683688234053169000,11.7811689453125,-1.9864485422611236,-12.313833896213769,0.458076214813441
1683688234063138800,11.791138916015624,-2.0473580612540245,-11.985894904267788,-0.1330579326197505
1683688234073109800,11.80110986328125,-1.615676955282688,-11.037917303574085,-0.8640180455029011
1683688234083080000,11.811079833984374,-0.7214976533371955,-9.482872803908586,-1.5310187503032386
1683688234093050600,11.821050537109375,0.2618154646318406,-7.824960634964704,-1.6148630085512994
1683688234103021800,11.831021728515625,1.3668261130988597,-6.470621662995219,-1.1980037702672184
1683688234112991700,11.84099169921875,2.2638404192745685,-5.428825376397371,-0.4908198158994317
1683688234122962700,11.850962646484374,2.0406150167345998,-4.736032497084141,0.4031292574867606
1683688234132932900,11.860932861328125,0.5496422994852066,-4.632901792955399,1.2612486003398895
1683688234142903800,11.87090380859375,0.21334113738536833,-5.080066299262643,1.9359692318677901
1683688234152873700,11.880873779296875,1.2181892108142376,-5.836043072241544,2.593395029723644
1683688234162845000,11.890844970703125,4.238557607209682,-5.36448354486823,3.1153385904222723
1683688234172816000,11.90081591796875,8.73658214316368,-2.5773241848886013,2.841388962817192
1683688234182785800,11.910785888671874,8.066154240393638,0.5652244840204715,1.9523706238314509
1683688234192757000,11.920757080078126,-2.874539537268877,1.1110001712054014,0.662504124033451
1683688234202727000,11.930726806640624,-9.930158306246994,3.3932319872170686,-0.861117940147221
1683688234212697900,11.94069775390625,-6.845649153852462,11.239054792946577,-4.298922936323285
1683688234222668000,11.95066796875,-0.7369405755322426,24.612736765277383,-10.329493139886855
1683688234232638700,11.960638671875,-3.3384511802375316,33.146562293434144,-18.48708998470306
1683688234242609000,11.97060888671875,4.558135598045587,31.47391315860748,-27.877427128255366
1683688234252579800,11.980579833984375,2.286953437706083,18.864511092698574,-28.135077362966534
1683688234262550800,11.99055078125,-3.2775825777769088,10.970276430499553,-15.59922919356823
1683688234272520700,12.000520751953125,1.7101413917444646,8.025649796047807,-6.873726078301668
1683688234282492000,12.010491943359375,1.881421649122238,4.438195797935128,-2.7592028470396994
1683688234292461800,12.0204619140625,0.9502724336326122,1.2435977928370237,-0.6056663845241069
1683688234302432800,12.030432861328125,0.9340239672083407,-1.4182488418221473,0.08783435079753399
1683688234312402700,12.040402587890625,0.8400093203406781,-2.2058605239927767,-0.3713233756422996
1683688234322374000,12.050373779296875,1.3083902907431124,1.2524164745867252,-1.8817957431316374
1683688234332344800,12.0603447265625,3.3196763371407982,6.951057155263424,-2.8817934539198875
1683688234342314800,12.070314697265625,4.032920468330383,11.59746374195814,-2.8642022676497696
1683688234352286000,12.080285888671876,2.2309774295926093,14.362275661051273,-2.612999893903732
1683688234362256000,12.090255859375,0.14427169281244276,14.099490986061095,-2.2369652718305586
1683688234372226800,12.100226806640626,-0.8693138138234615,10.345399149549007,-1.9879010791569947
1683688234382197000,12.110197021484375,-0.8729471288245171,6.068353698512912,-2.225522379057109
1683688234392167700,12.120167724609376,-0.04562544062137604,3.1861914112806318,-2.143354675719142
1683688234402138600,12.130138671875,0.5468389325022697,1.2215665782928466,-1.6188725364536045
1683688234412108800,12.14010888671875,0.3345123789869249,-0.12992343398630618,-0.8781608448848128
1683688234422079700,12.150079833984375,-0.35165297194533046,-1.1141232716619969,-0.15016659606993196
1683688234432049700,12.160049560546875,-0.9017430882632732,-1.8618132778108119,0.2840405212476849
1683688234442020900,12.170020751953125,-1.1835084311205892,-2.484052026951313,0.5913797927573323
1683688234451990800,12.17999072265625,-1.3037608773767948,-2.6510236273497343,0.7169236964851617
1683688234461960700,12.189960693359374,-1.3340484636127947,-2.3091817822575567,0.3891515855386853
1683688234471931600,12.199931640625,-1.4594728326141833,-1.8569260902911424,-0.3518760401114821
1683688234481901800,12.20990185546875,-1.6471208719469606,-1.5947399657160042,-1.2673472094759344
1683688234491872800,12.219872802734375,-1.399517253345251,-1.8018255498379467,-1.6064122833311556
1683688234501844000,12.229843994140625,-0.42882630106210706,-2.4036370124995705,-0.9914046544879674
1683688234511814000,12.23981396484375,0.07392799052000046,-2.847067592975497,0.3376327029645443
1683688234521784800,12.249784912109375,-0.42455695317983627,-3.0861534124702215,1.7924769989952445
1683688234531754800,12.259754638671875,-1.346435651499033,-3.374994904258847,3.214134480217099
1683688234541726000,12.269725830078125,-1.866111851787567,-3.949030471244454,4.492035816933214
1683688234551696000,12.27969580078125,-2.157957786089182,-4.883743516695499,5.403353081488609
1683688234561666800,12.289666748046875,-2.0366426059722897,-6.177126207920908,6.048741235548257
1683688234571637000,12.299636962890625,-1.938597242283821,-7.624097870880365,6.2264189388781785
1683688234581608000,12.30960791015625,-1.5346061072707176,-8.957727232298254,6.2174833527505395
1683688234591578600,12.31957861328125,-0.8480021457254886,-10.252686963582038,5.99575198816061
1683688234601548800,12.329548828125,0.15392339132018387,-11.613507698786258,5.638356600105762
1683688234611519700,12.339519775390626,0.8090097864430398,-12.85996321914196,5.109409298124909
1683688234621489700,12.34948974609375,1.0099087908845394,-13.954647630840538,4.619808502626419
1683688234631460900,12.3594609375,1.0810136137425899,-14.682348157405853,4.176608808296919
1683688234641430800,12.3694306640625,1.3887643886625767,-14.255046289432048,3.713566057117283
1683688234651401700,12.379401611328126,2.4470307485461236,-11.715412075990438,3.0101097449705003
1683688234661373000,12.389373046875,3.6778783654034135,-7.361877259513736,1.8278136853143572
1683688234671342800,12.3993427734375,3.257489053297043,-2.2524469186007976,0.4336804630950093
1683688234681313800,12.409313720703125,2.7157868991613388,4.3006233105003835,-1.145583408808708
1683688234691283700,12.41928369140625,-2.7749861071050166,12.737850751167535,-3.1046406707972287
1683688234701255000,12.4292548828125,-3.5355449471771716,22.60204926929474,-6.050878247576952
1683688234711224800,12.439224853515626,0.48855859296917914,29.19789481028318,-9.813578922480344
1683688234721195800,12.44919580078125,-0.13268767453525215,29.149594597494602,-13.503472719848155
1683688234731166700,12.459166748046876,-0.6775895380277186,17.894892153561113,-9.78792542578578
1683688234741137000,12.469136962890625,2.601836694854498,7.971298028135299,-3.245537626479566
1683688234751107800,12.47910791015625,1.591711557805538,1.9125866027146576,-0.6245996330529451
1683688234761078000,12.489078125,-0.39919454838633533,-2.6932594255328177,0.1931152186974883
1683688234771049000,12.499049072265626,-0.45564065822958943,-5.759515128356218,0.2354182368978858
1683688234781019000,12.509018798828125,0.4031880019366741,-6.601930998381972,-0.5786246483415365
1683688234790990000,12.518989990234376,0.5904197155535221,-2.942522355648875,-2.1205144828796385
1683688234800960000,12.5289599609375,-0.34159934157319366,3.1089772386968133,-2.828753645388782
1683688234810931000,12.538930908203126,-2.012647982400656,7.146596678498387,-3.3195562178924676
1683688234820902100,12.548902099609375,-3.062317194330692,9.55686626088023,-4.194181582127511
1683688234830872000,12.5588720703125,-2.746068640178442,10.026658194059133,-4.444673469516634
1683688234840843000,12.568843017578125,-1.1178384927928446,7.821429538229108,-2.851281995800137
1683688234850813000,12.57881298828125,0.9289840733449906,4.308922352290153,0.1719283460229635
1683688234860784000,12.5887841796875,2.0892776330947873,1.6276012018322943,2.683398541253805
1683688234870754000,12.598754150390626,2.0634978796720502,-0.2181488299280405,4.065780827663839
1683688234880725000,12.60872509765625,2.618649882489443,-1.4269821833759546,4.978840551972389
1683688234890696000,12.618696044921874,2.8098399783432484,-2.039941647517681,5.661065275520086
1683688234900666000,12.628666015625,1.4304431374847888,-2.2449287980556485,6.288237389409542
1683688234910637000,12.638636962890626,-0.33915837816186245,-2.406004910674691,6.720202573019265
1683688234920607000,12.64860693359375,-1.666796901667118,-2.7624773386657235,7.045044767993688
