time,seconds_elapsed,z,y,x
1684125104964059400,0.053059326171875,0.417418187341094,0.44173429795205593,-0.5450861705508083
1684125104974029300,0.063029296875,0.5610848999977112,0.3959484060719609,-0.7345215316917747
1684125104983998200,0.072998291015625,0.628176907017827,0.3652083998933434,-0.8397698855616151
1684125104993968000,0.082968017578125,0.6498761131286621,0.29975334642529483,-0.7836391983430833
1684125105003937300,0.092937255859375,0.7427829448848963,0.18370821566581724,-0.6244964649394155
1684125105013907200,0.1029072265625,0.84514617177248,0.08330489067435264,-0.47517939837090667
1684125105023876000,0.1128759765625,0.7874041768997907,0.030422318531572817,-0.3315671193152666
1684125105033846000,0.122845947265625,0.743038965472579,0.013158172258734703,-0.24790238235257564
1684125105043815200,0.132815185546875,0.8470061204254626,-0.007801905922591686,-0.25320129247829315
1684125105053785300,0.142785400390625,0.8633347394138574,-0.016444062061607836,-0.3680881200481206
1684125105063754200,0.152754150390625,0.8199737365931272,0.0010135609567165373,-0.4725759378742426
1684125105073724200,0.16272412109375,0.8030395529270171,0.0057297758236527436,-0.49230545134730636
1684125105083693300,0.172693359375,0.6703115829139947,0.04151975886821747,-0.37703956133201716
1684125105093663200,0.182663330078125,0.6014712709218263,0.0780976774200797,-0.24833039850629865
1684125105103633200,0.192633056640625,0.6161094526052474,0.05624386526942253,-0.21036957422867417
1684125105113602300,0.202602294921875,0.6615332331746816,-0.006545476120710373,-0.19761764468327164
1684125105123572200,0.212572265625,0.6177303318053483,-0.07278291213810444,-0.2593028972890228
1684125105133541400,0.222541259765625,0.5503840577632189,-0.13786124124825,-0.32650077583640813
1684125105143511300,0.23251123046875,0.37171383626461024,-0.15047376232296228,-0.30993608306981624
1684125105153480200,0.242480224609375,0.12815583979189396,-0.15213585031628607,-0.19602043861970303
1684125105163450400,0.252450439453125,0.0654997693926096,-0.13839578651636839,-0.08928009262643755
1684125105173419500,0.26241943359375,0.08110124315023422,-0.10657236901521683,-0.03455664185732603
1684125105183389400,0.272389404296875,0.1007218894213438,-0.06408025798350572,-0.007987272426858543
1684125105193358300,0.2823583984375,0.09990881947278976,-0.02021802764236927,-0.01420103237517178
1684125105203328300,0.292328369140625,0.0509732313901186,-0.012510229744017123,-0.09278729702979326
1684125105213297400,0.30229736328125,0.03128594962358475,-0.02790244466513395,-0.2625534235175699
1684125105223267300,0.312267333984375,0.003285597541928291,-0.012018062312901019,-0.3465513379573822
1684125105233236200,0.322236328125,-0.044458150407671926,0.02524988432973623,-0.27729360427074135
1684125105243206100,0.3322060546875,-0.020645897665619847,0.07146072362363338,-0.19059541789628565
1684125105253175300,0.34217529296875,0.047449733439087864,0.07411649882942438,-0.16893237907737493
1684125105263145500,0.3521455078125,0.16200550242364406,0.07731061869561671,-0.1729313855856657
1684125105273114400,0.3621142578125,0.3046317661166191,0.09338760101050138,-0.1639459689669311
1684125105283084300,0.372084228515625,0.359244815313816,0.08200257590413093,-0.1532904271788895
1684125105293053400,0.382053466796875,0.3610720307409763,0.04022679644823074,-0.17815401560477911
1684125105303023400,0.3920234375,0.23634616539776324,0.024759178203344345,-0.13244725337550042
1684125105312992300,0.4019921875,0.09215689017176627,0.0022252748340368268,-0.05338971794731915
1684125105322962200,0.411962158203125,0.044511341899633405,-0.008217793247103691,-0.03761968268975615
1684125105332932400,0.421932373046875,0.01664133819937706,0.014157704690098761,0.00951923123449087
1684125105342901500,0.431901611328125,0.029903555354475975,0.029879005435109136,0.03874780993685126
1684125105352871400,0.441871337890625,0.05257423684597015,0.03134849346578121,0.020521394503116606
1684125105362840300,0.45184033203125,0.036870471757650375,0.04047229564189911,0.05652626240737736
1684125105372810200,0.461810302734375,0.026163784304261205,0.06066401979923248,0.09347330653257667
1684125105382779400,0.471779296875,0.043753801530599594,0.04788929390013218,0.07709807192347944
1684125105392749300,0.481749267578125,-0.00014145429730415344,0.03211041774898767,0.07606558707058429
1684125105402718200,0.49171826171875,-0.11018296072781085,0.05845131218582392,0.1578675258360803
1684125105412688400,0.5016884765625,-0.2345265487551689,0.11338643294423818,0.2983669335681945
1684125105422657500,0.511657470703125,-0.3461918569952249,0.14033084623217582,0.3683491821371019
1684125105432627500,0.52162744140625,-0.4526619346797466,0.1344926415979862,0.40674978607147927
1684125105442596400,0.531596435546875,-0.4473538913995027,0.1039656936481595,0.3736506495460868
1684125105452566300,0.541566162109375,-0.3833703717887401,0.111400519824028,0.32632417716048656
1684125105462535400,0.551535400390625,-0.3299240282833576,0.0877750218257308,0.2913958524465561
1684125105472505300,0.56150537109375,-0.3214583977550268,0.05766776059269905,0.2831185110319406
1684125105482474200,0.57147412109375,-0.3807195650190115,0.013185644787549971,0.35068814550116656
1684125105492444200,0.581444091796875,-0.32761808942854403,-0.04754413372427225,0.38367213121429083
1684125105502413300,0.591413330078125,-0.2664110487937927,-0.0941425110310316,0.381126611449942
1684125105512383500,0.601383544921875,-0.2102320654541254,-0.13023323058784006,0.3789638073928654
1684125105522352400,0.611352294921875,-0.18684592916965484,-0.1389136729106307,0.375857000483945
1684125105532322300,0.621322265625,-0.13244330785274505,-0.15115414580255745,0.4104460833061486
1684125105542291500,0.63129150390625,-0.059086979740858074,-0.17363982611596585,0.3629925504747778
1684125105552261400,0.641261474609375,0.018478490498661994,-0.16016075133979318,0.27142230108454823
1684125105562231300,0.651231201171875,0.09121580992937088,-0.15018413172662257,0.23580562878027556
1684125105572200200,0.6612001953125,0.09575403788089752,-0.1518883052960038,0.20087028980366883
1684125105582170400,0.67117041015625,0.06561375116109848,-0.15144640674740076,0.1710446219909936
1684125105592139500,0.681139404296875,-0.12039163553118705,-0.1508776669487357,0.2262668160624802
1684125105602109400,0.691109375,-0.22115268791913986,-0.13819500324726103,0.3219770148016512
1684125105612078300,0.701078369140625,-0.16614508644640444,-0.07520254050046205,0.3048392713874578
1684125105622048300,0.71104833984375,-0.22930969088971614,-0.0005123334363102913,0.28481501275151966
1684125105632017400,0.721017333984375,-0.2162625777900219,0.022250702513754366,0.1892098818220198
1684125105641987300,0.7309873046875,-0.1673626455426216,0.026083997066318986,0.0759704561330378
1684125105651956200,0.740956298828125,-0.17331775455474852,0.06277969677895308,0.04603548272699117
1684125105661926100,0.750926025390625,-0.12011691024303435,0.06042319678068161,0.05365151068866253
1684125105671895300,0.760895263671875,-0.05348492195010185,0.018996376892924306,0.09477613275945186
1684125105681865500,0.770865478515625,-0.017441548666357994,-0.021651275315880774,0.2026725899852812
1684125105691834400,0.78083447265625,0.027724457749724388,-0.05562602563202381,0.30080022512972354
1684125105701804300,0.79080419921875,0.15039865126013754,-0.07144757188111543,0.4138232315890491
1684125105711773400,0.8007734375,0.20223405243754386,-0.060521104197204106,0.4876315412521362
1684125105721743400,0.810743408203125,0.14450900869965552,-0.054446460458636284,0.43757001787945626
1684125105731712300,0.820712158203125,0.0976239234060049,-0.04937281045615673,0.3038486529149115
1684125105741682200,0.83068212890625,0.08968202449083328,-0.051389703236520284,0.1760427956044674
1684125105751651300,0.8406513671875,0.11881927164793014,-0.05030044669508934,0.10254808193519711
1684125105761621500,0.85062158203125,0.12417933737635611,-0.05027122060060501,0.05683160202950239
1684125105771591400,0.86059130859375,0.17057225523889064,-0.06781973677277564,0.04195362024083733
1684125105781560300,0.870560302734375,0.23107728508412836,-0.07956862675547599,0.03647621174305677
1684125105791530500,0.880530517578125,0.30597675098478794,-0.09117664696276187,0.03710807990580797
1684125105801499400,0.89049951171875,0.38497429985404014,-0.14397563247531653,0.0580447772115469
1684125105811469300,0.90046923828125,0.3703179979920387,-0.21674510060995816,0.11667436857372522
1684125105821438200,0.910438232421875,0.33443419918417927,-0.2889475825116038,0.15790917302072047
1684125105831408400,0.920408447265625,0.3895329860717058,-0.34048896917849775,0.22001243184283376
1684125105841377300,0.930377197265625,0.3757423611283302,-0.39403555818796154,0.30115356861203907
1684125105851347500,0.940347412109375,0.2933873185247183,-0.4408566383346915,0.3975670933149755
1684125105861316400,0.95031640625,0.21004911010265348,-0.48838206735849377,0.4816511516682803
1684125105871286300,0.960286376953125,0.11930851646959781,-0.5045373756065964,0.5441192982800305
1684125105881255400,0.97025537109375,0.04814999066293239,-0.5029503986760974,0.6205534264020621
1684125105891225300,0.980225341796875,-0.034379823985695834,-0.47921559508442874,0.6338146206438541
1684125105901194200,0.9901943359375,-0.06488602140843867,-0.40342531782388685,0.544249792791903
1684125105911164200,1.0001640625,-0.12151099494993686,-0.3172600692823529,0.4041087700434029
1684125105921133300,1.01013330078125,-0.17301555673778057,-0.24392741430699824,0.2750755628950894
1684125105931103500,1.020103515625,-0.21704349903464315,-0.1814329642102122,0.19203531450629233
1684125105941072400,1.030072265625,-0.24481238044798373,-0.1303495504438877,0.1908016810581088
1684125105951042300,1.040042236328125,-0.25420038651823995,-0.11060147840082644,0.1850229515261948
1684125105961011500,1.050011474609375,-0.26150807918310165,-0.10520137292295693,0.1637199051260948
1684125105970981400,1.0599814453125,-0.27948797250986096,-0.0909594970807433,0.16964608030468226
1684125105980950300,1.0699501953125,-0.260216870328784,-0.05712707784473896,0.20477394617870448
1684125105990920200,1.079920166015625,-0.12596037557423115,-0.03231763075888157,0.17702216203063725
1684125106000890400,1.089890380859375,-0.057476621934771537,0.010417349117994308,0.15964593368545174
1684125106010859500,1.099859619140625,-0.02728723537623882,0.02855477109402418,0.08811609034836292
1684125106020829400,1.109829345703125,0.13571253878176212,0.037813305565714835,-0.02007350460514426
1684125106030798300,1.11979833984375,0.22864392045736312,0.07081570371836424,-0.083975629542768
1684125106040768500,1.1297685546875,0.20585399650037287,0.06020049394071102,-0.08244710480123758
1684125106050737400,1.1397373046875,0.23810616080760955,0.0477510544732213,-0.09972060342431067
1684125106060707300,1.149707275390625,0.3795587045460939,0.06498422108590603,-0.11280074201077223
1684125106070676200,1.15967626953125,0.5093406842350959,0.04947597856968641,-0.12475816017761826
1684125106080646400,1.169646484375,0.08106558731496334,0.00656213499456644,-0.1833770840153098
1684125106090615300,1.179615234375,0.13591712144315243,0.023234160593152045,-0.2731388957440853
1684125106100585500,1.18958544921875,0.28359949948191643,0.15881839682012797,-0.3780141054525971
1684125106110557400,1.199557373046875,0.20112404536902903,0.2673608968645334,-0.4866200261220336
1684125106120527600,1.209527587890625,0.24782617531120776,0.2615434427574277,-0.4731530801750719
1684125106130496500,1.21949658203125,0.3848135563343763,0.2760875164166093,-0.4146266569264233
1684125106140466400,1.229466552734375,0.4104506864160299,0.37008331245332954,-0.5112595234684646
1684125106150435300,1.239435302734375,0.5392629442900418,0.43944940188527104,-0.6816089297369122
1684125106160405500,1.249405517578125,0.8160480875819921,0.46028205429464575,-0.7570514164730906
1684125106170374400,1.25937451171875,0.9416051430523394,0.4329863433510065,-0.6659793989285826
1684125106180344600,1.269344482421875,0.9977122301995753,0.3512438796877861,-0.5820351874373852
1684125106190313500,1.2793134765625,1.0197791005790233,0.27488895428180693,-0.49079453532770273
1684125106200283600,1.28928369140625,0.9842699803024529,0.20751257736235856,-0.34950653450116514
1684125106210252500,1.29925244140625,0.8854863654673099,0.17863748827278614,-0.33923458520323035
1684125106220222500,1.309222412109375,0.7202350129902363,0.16812252399921415,-0.39590968149676914
1684125106230191400,1.31919140625,0.667362669980526,0.1625418012574315,-0.3914807591386139
1684125106240161500,1.32916162109375,0.7946627697259188,0.22240999450385568,-0.4075174094431102
1684125106250131700,1.339131591796875,0.9703712188094854,0.3313096374228596,-0.4314534346953034
1684125106260100600,1.3491005859375,0.8216700191169977,0.4629544883742928,-0.3834641875520348
1684125106270070500,1.359070556640625,0.6714274352014065,0.5104781638324261,-0.3463495317749679
1684125106280039400,1.369039306640625,0.6196066470712422,0.5463797905579209,-0.4266752605080604
1684125106290009600,1.379009521484375,0.7547767495393752,0.549826131619513,-0.3211379336290061
1684125106299978500,1.388978515625,0.9896955124825239,0.4632885426342487,0.035545945155620574
1684125106309948400,1.398948486328125,1.0000959104657172,0.46889469207823276,0.03425415177941322
1684125106319917600,1.40891748046875,0.7936708360791206,0.48027562553137537,0.01326367845982313
1684125106329887500,1.418887451171875,0.5224988564938307,0.36282062797397374,0.07767521422430873
1684125106339856400,1.4288564453125,0.31707857523560523,0.18271949688941239,-0.024280893167108297
1684125106349826600,1.43882666015625,-0.27502631692588325,-0.010559387937188148,-0.32369346333071586
1684125106359795500,1.44879541015625,0.8848433913886546,0.25887743841856714,0.2741656084433198
1684125106369765600,1.458765625,1.1084341201096772,0.6145166304558515,0.46707419865280386
1684125106379734500,1.468734619140625,0.680510905367136,0.7470391410246491,0.10719766130670905
1684125106389704400,1.478704345703125,0.6977367654561996,0.7545338806942105,-0.18041063542515037
1684125106399673300,1.48867333984375,0.9848913270711899,0.9164502435296773,-0.028754969841241835
1684125106409643500,1.4986435546875,1.1998621114850043,1.1255357692971826,0.2846357106618583
1684125106419612400,1.5086123046875,1.5040186613053081,1.5406138232529163,0.39803602600097654
1684125106429582600,1.51858251953125,1.9512655851989984,1.9575328289002178,0.5070812148705125
1684125106439551500,1.528551513671875,3.1730192104965447,1.7585303057298063,0.6536126693084836
1684125106449521700,1.538521728515625,3.7963247120857235,2.0152353685453535,0.6798778681606054
1684125106459490600,1.548490478515625,4.085376047232747,2.3741250868111847,0.7656783750429749
1684125106469460500,1.55846044921875,4.68784217441082,2.4295605583071707,0.6053223933920264
1684125106479430400,1.568430419921875,4.794208207198977,2.5933386233612894,0.7021005136236548
1684125106489399600,1.578399658203125,4.532907633286714,3.003136691087484,0.9917129897847771
1684125106499369500,1.588369384765625,4.591124259933829,3.2345702422633766,1.0951529059931635
1684125106509338600,1.598338623046875,5.737047275960445,2.929478749680519,1.483015328504145
1684125106519308500,1.60830859375,5.276608862060308,2.1171876765444875,1.8879729704618453
1684125106529277400,1.61827734375,2.843414331164956,2.6107220120996235,1.737340510445833
1684125106539247600,1.62824755859375,2.8262176971703767,3.375679087130725,1.370195589531958
1684125106549216500,1.638216552734375,2.7360458433359858,2.973032060202956,1.644983713787794
1684125106559186400,1.6481865234375,1.818009791919589,1.4158826972126959,1.4273720594763755
1684125106569155300,1.6581552734375,0.9361796108722686,1.217869477340579,0.39657764388620853
1684125106579125500,1.66812548828125,-0.12199205646514892,2.595288296124339,-0.5054933611571788
1684125106589094400,1.678094482421875,-1.0949608905524015,3.7252827983960506,-0.31673312279880045
1684125106599064600,1.688064697265625,-3.011920886045694,3.347148281434178,-0.49265842950344085
1684125106609033500,1.698033447265625,-4.287780195540189,2.6026485957592724,-0.028180969345569608
1684125106619003600,1.708003662109375,-3.25866861847043,2.353160040193796,0.6085328798711299
1684125106628972500,1.71797265625,-2.614214530390501,2.4407582441478968,-0.22389643366932868
1684125106638942500,1.7279423828125,-2.058079361754656,2.6251591182529923,-0.6262333717346191
1684125106648911400,1.737911376953125,-1.7212366401240229,2.4173706465587017,-1.1826561251401901
1684125106658881500,1.747881591796875,-2.254354213526845,0.8800216703206301,-2.43086754925251
1684125106668850400,1.757850341796875,-2.791106636300683,-0.13302549165487287,-3.3695541745096445
1684125106678820600,1.767820556640625,-2.1844223069056867,-1.9044285768307745,-6.489521009254455
1684125106688789500,1.77778955078125,-2.3023268017962573,-5.4863043364197015,-15.109222155356406
1684125106698759700,1.787759765625,-4.259101213544607,0.5224233070395886,-5.364518031659722
1684125106708729600,1.7977294921875,-0.8891717759817838,-0.8550798290267586,1.7022399709701537
1684125106718698500,1.807698486328125,1.4636580093443392,-5.167752181500196,-2.745678179556131
1684125106728668400,1.81766845703125,0.20849486639797687,-2.5161414019122716,-8.120850876221061
1684125106738637600,1.827637451171875,0.20047697963714597,0.24795798499733207,-4.772656885126233
1684125106748607500,1.837607421875,-0.33275311422944065,-0.1332078624844551,-0.12560381722152233
1684125106758576400,1.847576416015625,-0.8394966215781867,0.9081430184334516,0.9773714529603719
1684125106768546600,1.857546630859375,-1.917696931465715,0.16892127316147088,-4.211972967144846
1684125106778515500,1.867515380859375,-1.3580797659330068,0.6118284142851829,-5.9216311054170125
1684125106788485600,1.877485595703125,-0.9094118693254888,0.4841334700033068,-4.298218002924322
1684125106798454500,1.88745458984375,-0.6901511326327919,0.43693361967206,-0.8220295000791549
1684125106808424400,1.897424560546875,-0.6263179812781512,0.6882333163127303,-0.14193360525369644
1684125106818393300,1.907393310546875,-0.7603466586261988,0.9549714051038026,-0.7967980281889439
1684125106828363500,1.917363525390625,-1.0645140221014617,1.3399234931260346,-0.25538228977918626
1684125106838332400,1.92733251953125,-1.5551380231678484,1.9750594255015252,0.5129892698705196
1684125106848302600,1.937302490234375,-2.160989408870041,2.5065204638689753,0.2621411163896322
1684125106858271500,1.947271484375,-2.2690134379982947,2.481418171316385,-0.026360183659195898
1684125106868241700,1.95724169921875,-1.8878136882469057,2.3343901655331254,-0.04799801497161388
1684125106878210600,1.96721044921875,-1.8520953091338275,2.308661265514791,-0.020757541346549988
1684125106888180500,1.977180419921875,-2.0750763815239073,2.1253288974240423,-0.042722704917192454
1684125106898149400,1.9871494140625,-1.9243702717497944,1.8718629626601933,-0.1768301465898752
1684125106908119600,1.99711962890625,-2.009174461071193,1.8594193684116005,-0.30822540669441223
1684125106918088400,2.00708837890625,-1.7320482492566107,1.7452245416939258,-0.7079308272123337
1684125106928058400,2.017058349609375,-0.08841916494816542,0.771000739109516,-2.149168914955854
1684125106938028500,2.027028564453125,1.5325643723100424,0.28783436057269574,-1.7574749514579773
1684125106947997700,2.036997802734375,0.9012544279634952,0.12006196518540381,-1.2657184392303227
1684125106957967600,2.046967529296875,-0.2597796479552984,-0.553636337557435,-2.80459564794898
1684125106967936500,2.0569365234375,-0.8460296766087413,-1.2615893766015767,-4.99202385867238
1684125106977906400,2.066906494140625,-0.7284051677033305,-0.8075450476527214,-6.616340047484636
1684125106987875600,2.07687548828125,-0.5592512548297643,0.41216976529359817,-6.061387366631627
1684125106997845500,2.086845458984375,-0.592909778803587,2.1247113500475883,-4.527546398514509
1684125107007814400,2.096814453125,-0.375785615748167,2.7135920194655654,-6.5615270918011666
1684125107017784600,2.10678466796875,-1.3021645480960606,2.547346395254135,-4.032707702362537
1684125107027753500,2.11675341796875,-1.001603392419219,0.9903899244874715,-0.6869061593621969
1684125107037723600,2.1267236328125,0.7861275810927152,-1.3034703699976204,1.623185723477602
1684125107047692500,2.136692626953125,2.241838138563931,-0.9256447728544474,1.241480654552579
1684125107057662500,2.146662353515625,2.918711856472492,-1.29873398912549,0.5207347694307566
1684125107067631400,2.15663134765625,2.441453240674734,-1.1867454402804374,0.44533787540197367
1684125107077601500,2.1666015625,1.6751131868526339,-0.711121147686243,0.5154489379823207
1684125107087570400,2.1765703125,1.8511840395078063,-1.397792329248786,1.057286701196432
1684125107097540600,2.18654052734375,2.9394594609469173,-1.7343103489696978,0.7962444859594107
1684125107107509500,2.196509521484375,2.898808886128664,-1.7638193520486354,0.17279636102914808
1684125107117476400,2.206476318359375,1.857292293255031,-0.8049404181122779,-0.006019406419992447
1684125107127445200,2.2164453125,1.179632977926731,0.8652478795588016,-0.5796896472245454
1684125107137415200,2.226415283203125,-0.25609482196271416,3.025496406933665,-0.9988812739789485
1684125107147384000,2.236384033203125,-0.9701093530029058,1.5800947697699068,3.1379712779909372
1684125107157354200,2.246354248046875,-0.40020314090698955,-0.2435018823713064,2.9863918925136326
1684125107167324200,2.25632421875,2.3648545696407557,-2.694441328793764,0.3262941473484039
1684125107177293000,2.26629296875,3.1214088502466675,-5.396190934774279,-2.9929402912437912
1684125107187263000,2.276262939453125,6.602712504148483,-4.925523387804627,-2.1129273887515065
1684125107197232000,2.286232177734375,4.0250580643922085,-3.6763790667563674,-1.0323036511093377
1684125107207202300,2.296202392578125,1.861149260944128,-2.26825706667304,0.5522369921535253
1684125107217171200,2.306171142578125,1.025262500426173,-2.213750984981656,1.6538924119085072
1684125107227141000,2.31614111328125,0.6619757162451744,-2.800680520331859,1.3385700326904653
1684125107237110000,2.326110107421875,0.17045125920772553,-3.3211808964848517,0.5701201471075416
1684125107247080200,2.336080078125,-0.6327788478553295,-3.812732241529226,-0.12494389200806617
1684125107257049000,2.346049072265625,-1.3599632415920495,-3.9333956797391174,-0.4003475178137421
1684125107267019000,2.35601904296875,-1.8805851982980966,-3.829692144158482,-0.4606730994388461
1684125107276988000,2.36598779296875,-2.3669284533053636,-3.4850364106893537,-0.6322028015330433
1684125107286958300,2.375958251953125,-2.7010072631806135,-3.087324794337153,-0.7487520824223757
1684125107296927200,2.38592724609375,-2.956250436750054,-2.5425445479303597,-1.519090558230877
1684125107306897200,2.395897216796875,-2.021066266655922,-2.03833947301805,-1.3268372170597313
1684125107316866000,2.405865966796875,-1.2962825043201445,-2.0202046813905237,-0.44066462289392944
1684125107326836200,2.415836181640625,-2.2280033822178837,-1.6094108806252478,0.39905543217658995
1684125107336805000,2.42580517578125,-3.2579069864481687,-0.41669221115410326,-0.9603133506536483
1684125107346775000,2.435775146484375,-4.018235524895787,1.4415338558197022,-0.40710839025080203
1684125107356744000,2.445743896484375,-5.741779565179348,2.281948322895169,0.7065373270273209
1684125107366714000,2.455714111328125,-5.7296706097126,2.6651287250697613,0.6411766738444566
1684125107376684300,2.465684326171875,-5.253780359658599,3.3057296448528763,0.4380103089928627
1684125107386653200,2.475653076171875,-3.4622482402980324,4.840334583079815,-0.5597036747723817
1684125107396623000,2.485623046875,-2.657164029800892,5.667489171087741,-0.5901216093897819
1684125107406592300,2.49559228515625,-1.8815046512305735,5.617456435418129,-0.2641290753364563
1684125107416562200,2.505562255859375,-2.4411262006774543,6.190552091205119,0.07287818920612335
1684125107426531000,2.515531005859375,-0.638854076115787,6.027573359835148,2.1151468183666466
1684125107436501000,2.5255009765625,1.2918740402281284,5.471821637558937,4.517494375577569
1684125107446470100,2.53547021484375,1.0474804697141051,3.4015792520627377,5.843037461173534
1684125107456440300,2.5454404296875,-0.14655775792300701,1.1594751560389995,0.613993483364582
1684125107466409200,2.5554091796875,5.002681446287036,3.708158937376737,-0.018079262048006056
1684125107476379100,2.565379150390625,6.642341919225454,1.7697966728925705,-3.3284377357453105
1684125107486348000,2.57534814453125,5.979372515767812,-1.3325216924369334,-4.869243866699934
1684125107496318200,2.585318115234375,6.268730724906921,-1.2182567230924963,-3.6936715623408554
1684125107506287000,2.595287109375,5.781216088032722,-0.09294920959323644,-3.950384223940968
1684125107516257000,2.605257080078125,5.8601101765275,0.4206438713893294,-3.311607012453675
1684125107526226000,2.615225830078125,4.680756892324983,0.21430939789563416,-1.454982535457611
1684125107536196400,2.6251962890625,4.950265614873171,0.6199672970771789,-1.093363392227888
1684125107546165200,2.635165283203125,3.480621516856551,1.1738371511295438,-1.168580838036537
1684125107556135200,2.64513525390625,2.413554303140938,1.293756200712919,-0.6359387731909751
1684125107566105000,2.65510498046875,1.3483251185074447,2.0938114771321414,0.16400982798337935
1684125107576074200,2.66507421875,1.2282809812396764,1.8346961383044718,2.5113585515499115
1684125107586044200,2.675044189453125,0.7791314385950565,2.199343104922771,2.88758898845613
1684125107596013000,2.685012939453125,0.2470885086864233,2.7684739487320185,3.78448814381957
1684125107605983000,2.69498291015625,-1.0867302378237247,1.461899767500162,4.068863303849101
1684125107615952100,2.7049521484375,-0.24987024835944174,2.1672911393627525,2.947785390743613
1684125107625922300,2.71492236328125,-1.3402476105138659,1.6693296350151299,2.6496166831612586
1684125107635891200,2.72489111328125,-1.758025863339007,1.8253227452814578,3.334752325719595
1684125107645861000,2.734861083984375,-3.4127272535428403,0.2874140893340111,2.2856156132310628
1684125107655830300,2.744830322265625,-1.7833277701169252,1.0645943938612936,-0.45753860080540176
1684125107665800200,2.75480029296875,-1.7256567946538328,0.26806875287294385,0.6410106696277856
1684125107675769000,2.76476904296875,-2.7830133462160824,-0.17965806349217892,-1.3094026826560496
1684125107685739000,2.774739013671875,-3.4917139887571333,-0.09358546167016028,-2.170169617408514
1684125107695708200,2.784708251953125,-3.2232816632688044,-1.4741671283990143,-2.3034534677386285
1684125107705678300,2.79467822265625,-1.731842497551441,-1.8652508510440586,-3.3908599973887203
1684125107715648300,2.804648193359375,-1.0802204175382852,-1.8558271891385316,-3.7975761734515427
1684125107725617200,2.8146171875,-1.491089037105441,-1.646919650286436,-3.1385359261363743
1684125107735587000,2.824587158203125,-1.8017799571305513,-2.0985978346258403,-2.6203666232794522
1684125107745556200,2.83455615234375,-1.761427488476038,-2.180700948294997,-2.5039444759011267
1684125107755526100,2.844526123046875,-1.8188018190801143,-2.083148336559534,-2.2223417031943797
1684125107765495000,2.8544951171875,-2.0609131238758565,-2.0518898594647643,-1.4342781856030224
1684125107775465000,2.86446484375,-1.916562520608306,-1.849125645673275,-0.43355683671534057
1684125107785434000,2.87443408203125,-1.105887358236313,-1.6520628583937882,0.4387152423918247
1684125107795404300,2.884404296875,-0.8901917666792869,-1.1413415334552526,1.4306494737118483
1684125107805373200,2.894373291015625,-0.3535942422062158,-0.8920587295949458,2.091669496667385
1684125107815343000,2.904343017578125,-0.35833296116590496,-0.43456513697504995,1.8839333396822213
1684125107825312300,2.914312255859375,-1.0744026711702346,0.4128951569586992,1.1524702457129954
1684125107835282200,2.9242822265625,-0.6433464190989733,0.10166589227318763,2.324742339482903
1684125107845251000,2.9342509765625,0.55963236310184,-0.18172259480655192,2.0140929205119606
1684125107855221000,2.944220947265625,0.854187556362152,1.0511480523109435,1.1197037021428347
1684125107865191200,2.954191162109375,1.672097346162796,0.15740297706425188,1.849089989838004
1684125107875160300,2.964160400390625,3.71050403919816,-1.72755502949059,-0.0009434183299541472
1684125107885130200,2.974130126953125,3.525750698393583,-0.8825064728736877,-1.644907141420245
1684125107895099100,2.98409912109375,1.564876157850027,0.29655250455737114,-0.42902328493893144
1684125107905069000,2.994069091796875,0.9446282902657985,0.6069125851929188,-0.0591512771487236
1684125107915038200,3.0040380859375,2.737347573584318,-1.9313333887606858,-1.7176240025848148
1684125107925008100,3.014008056640625,3.4395179375737905,-2.495166710683703,-1.0824608899414538
1684125107934977000,3.02397705078125,2.2275006933927535,-2.478670918434858,-0.7757412116348743
1684125107944947200,3.033947265625,1.101578847387433,-2.3615263020008803,0.3204997818559408
1684125107954916400,3.043916259765625,0.34015842204988,-2.700157368353009,0.6532312687754631
1684125107964886300,3.05388623046875,-0.4610889867633581,-2.344137360304594,0.8349217148780822
1684125107974855200,3.063855224609375,-1.753697186484933,-1.0369435858696698,2.525188047198951
1684125107984825000,3.0738251953125,-0.9349439315974711,-0.8197451885342597,2.053257640686631
1684125107994794200,3.083794189453125,-0.15475860003530978,-2.428713001567125,0.24538375059515236
1684125108004764200,3.09376416015625,-0.19240473234057426,-2.6516531574249265,-1.076298567919433
1684125108014734000,3.103734130859375,-0.048883565634489055,-2.0800719978541133,-0.49489714834094045
1684125108024703000,3.113702880859375,-0.7870476185470819,-1.0865350075125693,-1.310920101481676
1684125108034673200,3.123673095703125,-1.0306032769322395,-1.1107026495635508,-1.0224363370895384
1684125108044642300,3.133642333984375,-0.8521580963611602,-0.8825526501029729,-0.8107692703962326
1684125108054612200,3.1436123046875,-0.57742462490201,-0.17903204054832458,-0.23765607895255086
1684125108064581000,3.1535810546875,-0.859517811474204,0.06447276443243026,0.18161621182262896
1684125108074551000,3.163551025390625,-1.0112281298547983,-0.40711832712292667,-0.06285246975421906
1684125108084520200,3.173520263671875,-0.5935740879312157,-0.4318950409829616,0.14589783270955084
1684125108094490000,3.183489990234375,-0.31882483438104386,-0.4966232414811849,0.23962767128646373
1684125108104459000,3.193458984375,-0.18814064515531062,-0.5252034392774104,0.36588907563388345
1684125108114432500,3.2034326171875,-0.05523527274876833,-0.6798252611905335,0.8932400483340024
1684125108124401700,3.213401611328125,0.13217881169766188,-0.5888128648787736,1.157284952518344
1684125108134371600,3.22337158203125,0.07920856127142906,-0.3365174351990223,1.3034586795598269
1684125108144340500,3.233340576171875,0.1998682000890374,-0.0964034417003393,1.2431138087123632
1684125108154310700,3.243310546875,-0.2907724598512053,-0.10919979490935802,0.6498077240675687
1684125108164279800,3.25327978515625,-1.7722309143021702,-0.008003273713588714,0.15550795709788798
1684125108174249700,3.263249755859375,-0.8539809278741478,-0.542453849285841,0.8278226965278387
1684125108184219600,3.2732197265625,0.33071371735632416,-1.1954133153825997,1.033556281518936
1684125108194188500,3.2831884765625,0.5991814064189791,-1.1659352919638155,-0.14946516980230806
1684125108204158500,3.293158447265625,0.9750248898342251,-0.676950582537055,-0.45073476600944995
1684125108214127600,3.303127685546875,1.7090391295909881,-0.565384058496356,-0.10689327153265475
1684125108224097800,3.313097900390625,2.4367156907588243,-0.7168623216867447,0.009299743264913559
1684125108234066700,3.323066650390625,2.5857985832452774,-1.050062010639906,0.8621031517922878
1684125108244036600,3.33303662109375,2.581833771267533,-1.0567390041857958,1.1664596080988645
1684125108254005800,3.343005859375,1.9269380764111876,-1.2761504013955591,0.04670914420485496
1684125108263975700,3.3529755859375,1.602767497088015,-1.1583388454854489,-0.5663695624023676
1684125108273944600,3.362944580078125,1.3575813148915767,-0.8648211785793304,-1.090385253199935
1684125108283914500,3.37291455078125,1.5222155583836137,-1.0225520724236965,-1.765002424353361
1684125108293883600,3.382883544921875,1.4407742696240544,-0.6966553999602795,-2.0816765104413033
1684125108303853600,3.392853515625,0.5451673460282385,-0.5979150397449732,-1.693531763857603
1684125108313823700,3.40282373046875,-0.41721813472434877,-0.27372049502432344,-1.3718120848178863
1684125108323792600,3.412792724609375,-0.9414113740459084,-0.10261457130014896,-0.780887342351675
1684125108333762600,3.422762451171875,-0.9793065126761793,0.08670096285343169,0.022255086427927017
1684125108343731700,3.432731689453125,-0.9904474998936057,-0.19623802689313888,0.913772548753023
1684125108353701600,3.44270166015625,-0.6918339711531997,-0.385215122872591,0.827117178606987
1684125108363670500,3.45267041015625,0.09246697903424501,-0.3163642894864082,0.7457166602492332
1684125108373640400,3.462640380859375,0.5700158099502325,-0.09783142867684363,0.6718225719988346
1684125108383609600,3.472609619140625,1.2218728677630424,-0.40545477782487865,0.516783985978365
1684125108393579800,3.482579833984375,0.9540800092220306,-0.47861996727883815,0.7991115658283233
1684125108403548700,3.492548583984375,-0.005142477454990148,-0.4840069210141897,1.3642746750503778
1684125108413518600,3.5025185546875,-0.2874232955537736,-0.8332184180915355,1.5606021337926388
1684125108423487700,3.51248779296875,-0.42144422798678277,-1.7342285159051418,1.663613010933995
1684125108433457700,3.522457763671875,-1.0441285289376974,-2.1125550483077764,1.3192074528336524
1684125108443427600,3.532427490234375,-1.4332225390702484,-3.707663262814283,0.5666963101387024
1684125108453396500,3.542396484375,-0.3941483709126711,-4.35620608151257,0.5150982248485088
1684125108463366400,3.552366455078125,-0.8858131132036448,-2.456867667427659,-1.8823972161561249
1684125108473335800,3.562335693359375,-1.4140671722233296,-3.0547242549836633,-5.270293103042245
1684125108483305700,3.5723056640625,-1.0946166071593761,-2.6134137354016302,-7.138206451293826
1684125108493274600,3.582274658203125,-0.3341080725023523,-2.539903093510866,-7.143898525455594
1684125108503244500,3.59224462890625,0.8294740439314394,-2.279412082415819,-5.821269866001606
1684125108513213700,3.602213623046875,1.264201604926586,-1.8607786740660666,-4.160657790449261
1684125108523183600,3.61218359375,1.2474024458169937,-2.4569056613504885,-1.7616133664369582
1684125108533152500,3.622152587890625,2.181442560442537,-3.2704899891674515,1.2646698069602251
1684125108543122400,3.632122314453125,1.4144479882344603,-1.4741986925810575,2.2106839986264704
1684125108553092600,3.642092529296875,-0.7839502370536326,1.1792729124426842,0.8898793397292494
1684125108563061800,3.652061767578125,1.391937027349323,1.96552967287302,1.1103639191284775
1684125108573031700,3.66203173828125,0.8586706931255758,4.065764168789983,1.6006851378560065
1684125108583000600,3.67200048828125,-0.1207085925258696,8.202541901957987,3.7863255883798
1684125108592970500,3.681970458984375,-1.1117601957924663,10.683114854621886,0.3221022486165166
1684125108602939600,3.691939697265625,-2.0649466171756385,11.430051996576786,-1.932340227715671
1684125108612909600,3.70190966796875,-0.9959951971486211,9.685451724261045,-2.336746081009507
1684125108622878500,3.71187841796875,-1.1270260078549383,4.342943279835581,-1.8147899530902505
1684125108632848600,3.7218486328125,0.07895597474984824,4.083545324674248,0.21556027473956346
1684125108642817800,3.73181787109375,4.986887080305815,2.157832113882899,0.8296902439653873
1684125108652787700,3.74178759765625,5.036502467346191,-4.312029086133838,-1.714369676963985
1684125108662756600,3.751756591796875,0.002847790646553039,-7.451615982627868,-2.3666262554883954
1684125108672726500,3.7617265625,-2.5931857708871364,-5.818823057371378,-1.9400009716019033
1684125108682696700,3.77169677734375,-0.2998620674967766,-4.319668202710152,-1.5115525639414786
1684125108692665600,3.78166552734375,0.22257307611107824,-3.6650031017392872,-2.140538156993687
1684125108702635500,3.791635498046875,-1.3232307170003652,-3.470581768879294,-1.240366848091781
1684125108712604400,3.8016044921875,-1.0198603491216898,-4.353701989737153,0.4482783127680421
1684125108722574600,3.81157470703125,-1.2311954073816538,-4.299162005776167,-0.014093115021288394
1684125108732543700,3.821543701171875,-2.1913737334787844,-3.8911844314754007,-0.9496054941564798
1684125108742513700,3.831513671875,-2.4526965192228554,-3.78368676430881,-0.8629949860654771
1684125108752482600,3.841482666015625,-1.7613696208089589,-3.5105765101373194,-0.8975234978068619
1684125108762452500,3.851452392578125,-1.4563491476356982,-2.7197598944455383,0.6431644866608083
1684125108772421600,3.861421630859375,-2.920882770770788,0.8777963954865932,6.578179535916448
1684125108782391600,3.8713916015625,-0.11495209309207274,4.5432641921281816,11.103168651163577
1684125108792360400,3.8813603515625,4.479582285812497,3.371080361163616,6.766144824504852
1684125108802330600,3.89133056640625,3.206642663156986,2.2443553820818662,4.252694853633642
1684125108812300800,3.90130078125,1.0933961254537106,1.342974112868309,3.087707656174898
1684125108822269700,3.911269775390625,-1.686517501181364,-3.7006542608350514,3.1695980038762093
1684125108832239600,3.921239501953125,-4.386159905749559,-8.456053721690177,2.638453776372969
1684125108842208500,3.93120849609375,2.16909526617527,0.44046004023253915,3.269972687295079
1684125108852178700,3.9411787109375,5.013945767623186,3.656183835467696,2.2736261924907564
1684125108862147600,3.951147705078125,1.4862217233300208,3.2054309492796658,1.8761057147964835
1684125108872117500,3.961117431640625,-1.13839963478446,2.226157462090254,1.4111753963045774
1684125108882086400,3.97108642578125,-4.420542652344704,1.965720227009058,-0.6435843195080757
1684125108892056600,3.981056640625,0.39897593719959257,4.100988626906275,-1.210764759901911
1684125108902025700,3.991025634765625,3.679098847109079,2.9139368971556423,-0.8134402431711554
1684125108911995600,4.00099560546875,1.0434604204177855,3.9942584369808434,0.02981178541779518
1684125108921964500,4.010964599609375,0.5144646031200886,3.942792453637719,-1.822645927287638
1684125108931934700,4.020934814453125,-0.3600011866390705,3.7494033864349126,-3.791178289107978
1684125108941904600,4.030904541015625,-0.8776771530210972,2.741025385314226,-3.406829135414958
1684125108951873500,4.04087353515625,0.23335282880067823,-0.256167887198925,-2.5081261454999444
1684125108961843700,4.05084375,-0.9364788860797881,-1.5040683456659316,-1.3652648551315067
1684125108971812600,4.0608125,-1.8556781360566614,-1.0537620342016218,-1.24638844646886
1684125108981782800,4.07078271484375,-1.090030448412895,0.2729319749951362,-0.9841793794095516
1684125108991751700,4.080751708984375,-0.5835434000432491,1.375018771904707,-0.7392246678814292
1684125109001721600,4.0907216796875,-0.007718027031421661,0.5426718759506941,-0.43978243323191996
1684125109011690500,4.1006904296875,0.14824874321725218,-0.8292074288845062,-0.16337273565623908
1684125109021660700,4.11066064453125,-0.7380828043699265,-1.314211544242501,-0.34782091950178146
1684125109031629600,4.120629638671875,-0.7184697568833828,-1.6463520795315503,-1.1213048537291586
1684125109041599500,4.130599609375,0.8271943354964256,-0.6004618016183376,-0.7872019323259591
1684125109051568400,4.140568359375,0.355194078618288,0.34734102703034875,-0.4701312846684828
1684125109061538800,4.150538818359375,0.34978608209490775,0.3533826452821493,-0.3756749584479257
1684125109071508700,4.1605087890625,-0.3510907349526882,0.5239361958205699,0.9886011413745581
1684125109081477600,4.1704775390625,0.04589899686574936,0.9410638757824897,1.8497104598239063
1684125109091447600,4.180447509765625,-0.18740471382988616,1.2393863126218319,0.849692144639045
1684125109101416700,4.190416748046875,1.9930290896952152,0.19385259306132793,2.297336446163058
1684125109111386600,4.20038671875,1.4585481189846992,-0.16438333747088907,0.9481034190304577
1684125109121352200,4.210352294921875,0.5232429528594017,-0.6264490603119135,-0.037732751142792405
1684125109131322000,4.220322021484375,0.40658875029087066,0.3528320256620645,0.4091954621905461
1684125109141291300,4.230291259765625,0.11080429836339317,1.0570891327977179,0.40591395630184557
1684125109151261200,4.24026123046875,-0.17761866661906242,1.2335685662537812,1.2035912150107324
1684125109161230000,4.25022998046875,0.1401613348841667,0.7035743855684995,1.6434759395733474
1684125109171200000,4.260199951171875,0.39769817234873767,0.13992051186561583,1.3903522423759103
1684125109181170200,4.270170166015625,0.3975941274523735,0.12030337272584438,0.7863290950141847
1684125109191139300,4.280139404296875,0.05944589444743469,-0.4725140516191721,-0.18160002787280827
1684125109201109200,4.290109130859375,-0.08347440202236175,-0.48811377181112764,-0.3180713856652379
1684125109211078100,4.300078125,0.0025181203007698058,-0.01592588340640068,0.20783055727034805
1684125109221048000,4.310048095703125,-0.3860311154305935,0.18354630310237408,0.7889801940448582
1684125109231017200,4.320017333984375,-1.0074982956767082,-0.6947001742392778,0.523478405583091
1684125109240987100,4.329987060546875,-7.642782697606086,-12.799412596589326,-6.303131591680645
1684125109250956000,4.3399560546875,-3.011415859133005,-19.539252767014503,-2.966758094500005
1684125109260926000,4.349926025390625,7.811889556467532,-4.677037287279963,4.930303023296594
1684125109270895400,4.359895263671875,3.6387726819396016,-0.057310033196210856,-1.3292583067268133
1684125109280865300,4.369865234375,1.9553718514740466,2.856689407801628,0.2496269411228597
1684125109290834200,4.379834228515625,-0.7620658105690031,4.416993435430527,1.8209736101612448
1684125109300804000,4.38980419921875,-0.7069511685252189,5.748554758402705,1.3642194377318024
1684125109310774000,4.39977392578125,1.5230419262051582,3.7581840742617842,1.3022343984618783
1684125109320743200,4.4097431640625,0.9922609790563582,1.7412877867668866,2.0848060406386852
1684125109330713000,4.419713134765625,-1.2971218777537346,1.6123521947741508,1.2943337083399296
1684125109340682000,4.429681884765625,-1.167393089556694,1.9349837279617785,0.2352954873010516
1684125109350652200,4.439652099609375,-2.040374193716049,2.7789813142210242,0.28017726994827385
1684125109360621300,4.449621337890625,-2.7540368425786492,2.3509943865925074,-0.3967499317131936
1684125109370591200,4.45959130859375,-1.9038836562991142,2.536093179833889,-0.24633425625301897
1684125109380560100,4.46956005859375,-0.9438836093783378,1.9114795182555913,-0.4162384029719978
1684125109390530000,4.479530029296875,-0.07321370477080345,1.4384201077133416,-0.01887501553557813
1684125109400499200,4.489499267578125,0.8814566715598106,0.4142582620054483,0.4958657741773873
1684125109410469000,4.49946923828125,1.110581069010496,0.8257675175637006,0.5434580578923225
1684125109420439300,4.509439208984375,0.9879869549989699,0.8508855922073125,0.9716993256080895
1684125109430408200,4.519408203125,-1.0357973384439945,1.6069851147830485,1.5753474291123448
1684125109440378000,4.529378173828125,0.5141314256429672,2.46932382889688,0.8217232836741953
1684125109450347300,4.53934716796875,3.2574984056472776,2.215782198548317,-0.593716638207063
1684125109460317200,4.549317138671875,0.6851261440776288,0.6500386102139949,-1.0616968457888811
1684125109470286000,4.5592861328125,-2.784316245508194,0.529327825731039,1.0126616697892545
1684125109480256000,4.569256103515625,-2.2787585869431495,0.0015787936240434645,1.8142656369552015
1684125109490225200,4.57922509765625,0.693339918736741,-0.741641958156228,0.5285766055049375
1684125109500195000,4.589195068359375,2.5039631806015965,-1.0484013839513062,-0.49138530429508537
1684125109510164000,4.5991640625,2.618302676486969,-1.2435194669038057,-1.1502962626747786
1684125109520134100,4.609134033203125,0.9188800279598682,-0.9626485156029462,-1.320939829584211
1684125109530104000,4.61910400390625,-0.46879817290119824,-0.6485802280992269,-1.1087168825738132
1684125109540073200,4.6290732421875,-0.8538228147029876,-0.2731336350470781,-0.8538413732729851
1684125109550043100,4.639043212890625,-0.4716987166482955,-0.03914776903986931,-0.6615592443987727
1684125109560012000,4.649011962890625,-0.005355462618544697,0.01550327408015728,-0.44043728041145946
1684125109569982000,4.65898193359375,0.19906250972934067,-0.08623392986357212,-0.15302196723474187
1684125109579951000,4.668951171875,0.0860170722424984,-0.4582172307193279,-0.20972484658434987
1684125109589921300,4.67892138671875,-0.10012976874709129,-0.6964800433933734,-0.30695114897489545
1684125109599890200,4.68889013671875,-0.3364929583448916,-0.860112854757905,-0.6838589006207882
1684125109609860000,4.698860107421875,-0.4599824137609452,-0.7837409782171249,-1.2420790588371455
1684125109619829200,4.708829345703125,-0.39713140531145036,-0.535452446091175,-1.6095632947079836
1684125109629799200,4.718799072265625,-0.27904841204881664,-0.5388175386101007,-1.3626478045009076
1684125109639769000,4.72876904296875,-0.3991139574307948,0.007226444122195244,-0.1165139355813153
1684125109649738000,4.738738037109375,-0.42593876292705535,1.5079232675284147,1.3807098231531678
1684125109659708000,4.7487080078125,-0.8542506847262382,1.0597872858405113,0.589754968034476
1684125109669677000,4.758677001953125,1.246579438996315,0.14016016584038735,-0.5237704838648438
1684125109679647200,4.768647216796875,2.402012041646242,1.649051401618123,0.929289559097588
1684125109689616100,4.7786162109375,1.5223649037264286,2.012941996911168,1.2760365657575428
1684125109699586000,4.7885859375,0.38708559291958805,0.7483399944901465,1.8203015561185776
1684125109709555200,4.79855517578125,0.22098777968101202,-1.467170401379466,0.38145094803348184
1684125109719525000,4.808525146484375,0.1970551884949207,-2.2406845846146344,-0.8903064791001379
1684125109729494000,4.818493896484375,-0.3727753280162811,-1.8550012597084045,-1.4478333943553268
1684125109739464000,4.8284638671875,0.17494740158319472,-0.658766691070795,-1.1088583368711173
1684125109749434000,4.83843408203125,0.7260849080622196,0.4831909284561872,-0.26024901903271674
1684125109759403300,4.8484033203125,0.3823381061315536,0.9479021973699331,0.416869905808568
1684125109769373200,4.858373291015625,0.25368483821153637,0.7401403214216232,0.6868019683353602
1684125109779342000,4.868342041015625,0.48065468797683714,0.24958558619916438,0.6833956670232116
1684125109789312000,4.87831201171875,0.46350949190855023,-0.21648177349865436,0.40907223766967654
1684125109799281200,4.88828125,0.32242227435112,-0.5297942741990089,0.0438328581161797
1684125109809251000,4.8982509765625,0.2912483337346464,-0.5518213970899581,-0.3579069908387959
1684125109819220000,4.908219970703125,0.47842627133764326,-0.11089724647700785,-0.6301226342581212
1684125109829190000,4.91818994140625,0.7033363390289247,0.5967144317835569,-0.8444701722070574
1684125109839160300,4.928160400390625,0.9183528622806072,1.0650000520527363,-1.010178913062811
1684125109849129200,4.938129150390625,0.8481060444913804,0.8833101904720068,-1.3607058766528963
1684125109859099100,4.94809912109375,0.414858419855684,0.34813480775654315,-1.6653037404999136
1684125109869068000,4.958068115234375,-0.15868381065502762,-0.05335749617815017,-1.6929877201087773
1684125109879038200,4.9680380859375,-0.8230699490427971,-0.5154360785007477,-1.778129178560525
1684125109889007000,4.978007080078125,-1.0474118614573031,-0.8753221143275499,-1.6898472301259635
1684125109898977000,4.98797705078125,-1.0732605884630233,-0.9949936188906431,-1.4892277732782064
1684125109908946000,4.99794580078125,-0.7211702480137347,-0.734530664846301,-1.1745195804357529
1684125109918916400,5.007916259765625,-0.3787166276987642,-0.3859159646183252,-0.9996968281455337
1684125109928885200,5.01788525390625,-0.2193769834835082,-0.13410744167268276,-0.7503196970652788
1684125109938855200,5.027855224609375,0.0952583633184433,0.09535480943024158,-0.39129458891674873
1684125109948825000,5.0378251953125,0.4137327037613839,0.25574703143835065,0.039302155883982774
1684125109958794200,5.047794189453125,0.5611538005154579,0.40103286972939967,0.7227623395107686
1684125109968764200,5.05776416015625,0.5400187310934067,0.44464697052836416,1.2511882479660212
1684125109978733000,5.067733154296875,0.49569787026457485,0.2156815630316734,1.5032657971113919
1684125109988703000,5.077702880859375,0.14026289556249974,0.16491232978105544,1.80068164049983
1684125109998672100,5.087672119140625,-0.021946312739700078,-0.006790975314378738,1.9435610021710394
1684125110008642300,5.097642333984375,0.0912402867835015,0.09593874679803847,2.1728090260013935
1684125110018611200,5.107611083984375,0.25012159277200696,0.4269897332847118,2.4741978646740317
1684125110028581000,5.1175810546875,0.27456973226480186,0.6173071379572153,2.674246682026982
1684125110038550000,5.127550048828125,0.03575286590456962,0.6910954277455806,2.723966698485613
1684125110048520200,5.137520263671875,-0.1552596083600074,0.6805868932127952,2.623460497641563
1684125110058490000,5.147489990234375,-0.14539280579686165,0.6471668541699648,2.5207974110245703
1684125110068459000,5.157458984375,-0.0771545513510704,0.5698498057335615,2.4390252828754484
1684125110078429200,5.16742919921875,-0.06670783000811933,0.37752690645754333,2.374708731918037
1684125110088398300,5.1773984375,-0.19776611324325202,0.09070435327589511,2.29122073976174
1684125110098368300,5.1873681640625,-0.1744457356713712,0.031419805136322976,2.1985113302737473
1684125110108337200,5.197337158203125,-0.27519758183956144,-0.13067045296132565,1.9480542219370602
1684125110118310400,5.207310302734375,-0.5242882241286337,-0.2557137136906385,1.7237319640710949
1684125110128279600,5.217279541015625,-0.839399006422609,-0.37100422669053074,1.2993110583610832
1684125110138249500,5.22724951171875,-0.8987785393692552,-0.5433832390904426,0.6169574477367102
1684125110148218400,5.23721826171875,-0.8071640855111182,-0.5451677844196557,0.14286723284199834
1684125110158188500,5.2471884765625,-0.4673918862998485,-0.7447182968616485,-0.5061909880325198
1684125110168158500,5.257158447265625,0.1308348497428,-0.8381108663082122,-1.0115984244719147
1684125110178127600,5.267127685546875,1.1082418124079703,-0.7868605715423822,-1.4028005127996206
1684125110188097500,5.27709765625,1.4269336680591105,-1.1516232734948395,-2.144680371364951
1684125110198066400,5.28706640625,1.103742162901163,-1.821711569046974,-2.8409537862703202
1684125110208036400,5.297036376953125,0.5092538827344775,-2.9364468351274726,-3.5133477284163233
1684125110218005500,5.307005615234375,0.13301365508660673,-4.173671585801244,-3.947294441232085
1684125110227975700,5.3169755859375,0.4702782553911209,-5.284429764944314,-4.03298359669447
1684125110237944600,5.326944580078125,1.26859604049325,-6.2636196655035015,-3.744975340859592
1684125110247914500,5.33691455078125,2.2912414902888236,-6.953952876704931,-3.142704736253619
1684125110257884400,5.346884521484375,3.389215737313032,-6.432887852406501,-1.816028408844024
1684125110267853600,5.356853515625,4.410001384586096,-4.162342967057228,0.11575491564124822
1684125110277823500,5.366823486328125,5.802701943653822,-1.6853011111289262,1.7718819547340272
1684125110287792400,5.37679248046875,6.833872206819057,0.37584523698091504,2.737128962397575
1684125110297762300,5.38676220703125,5.574131672954559,2.233450541707873,3.4002944729492066
1684125110307731500,5.3967314453125,2.5619506746679543,3.330702758067846,3.734898768003285
1684125110317701600,5.40670166015625,-0.22613895189911126,2.9142835186362266,3.907650120846927
1684125110327670500,5.41667041015625,-1.2279523338072,0.9573048164874315,3.8259745849400755
1684125110337640400,5.426640380859375,-1.9412080093041062,-1.2872855433940886,3.5586268398180603
1684125110347610400,5.4366103515625,-3.762104462575912,-3.022921588009596,2.956664862769842
1684125110357579500,5.44657958984375,-5.164625573912263,-4.040917312303185,1.6652537638783453
1684125110367549400,5.456549560546875,-5.773700305575132,-4.369877463990449,-0.25724486878067254
1684125110377518300,5.466518310546875,-5.5829930248022075,-4.156180352774262,-2.514211018371582
1684125110387488500,5.476488525390625,-4.317078478477895,-3.185609227478504,-4.575584745496511
1684125110397457700,5.486457763671875,-2.928060699576139,-2.0675123760104177,-6.176163500368594
1684125110407427600,5.496427490234375,-1.7776959017097949,-1.168862577587366,-7.25285866639018
1684125110417396500,5.506396484375,-0.3718801327422261,-0.3653992462903261,-8.041219121101499
1684125110427366400,5.516366455078125,0.8658136967480182,0.20094459714889526,-8.396700199967622
1684125110437335600,5.52633544921875,1.3606772350803016,1.2912076852738856,-5.981041325762868
1684125110447305500,5.536305419921875,0.8474331136658787,2.949596239557862,-0.10665420207977294
1684125110457275400,5.546275390625,0.026030659443885086,3.9193870281308887,3.727225749157369
1684125110467244300,5.556244384765625,0.3218450589850545,4.602300902986526,6.016180443683266
1684125110477214500,5.56621435546875,1.4840470096394418,4.3663422756016255,6.9908689411699765
1684125110487183600,5.57618359375,1.6892362586207688,2.620902629852295,5.454904405027627
1684125110497153500,5.586153564453125,1.4104562882497906,0.6746802995175123,2.500533206152916
1684125110507122400,5.596122314453125,0.48442836129665373,-0.16334230398535726,0.359065951615572
1684125110517092400,5.60609228515625,-0.504431869405508,-0.30530630437731743,-1.6224924805164336
1684125110527061500,5.6160615234375,-0.5702130860880017,0.3043400896936655,-3.7325779238402843
1684125110537031400,5.626031494140625,-0.28046996928453444,1.4651409413784742,-5.763066683357954
1684125110547000300,5.636000244140625,0.5701973039969802,2.875115875852108,-7.218891514858603
1684125110556970500,5.645970458984375,0.7003669678293168,4.077009785425663,-8.207008818238974
1684125110566940700,5.655940673828125,-0.25282193777188655,5.016279179006815,-8.601129716622829
1684125110576909600,5.66590966796875,-0.5342812103547155,6.376319577488303,-8.330935057637095
1684125110586879500,5.67587939453125,-0.7038792137339711,8.291981349864601,-7.636425437533855
1684125110596848400,5.685848388671875,0.4473299260020256,10.506402196931838,-5.40918836351335
1684125110606818600,5.695818603515625,1.9969465553998946,12.64259589498043,-1.484231426295638
1684125110616787500,5.705787353515625,3.122745067286491,14.375080197566747,2.0233289508908987
1684125110626757400,5.71575732421875,4.441501269221305,16.520868237912655,5.157592022013664
1684125110636726500,5.7257265625,4.898141459882259,18.572769203293323,7.3918170552253715
1684125110646696400,5.735696533203125,3.3424247600436208,19.30435680042505,7.521100437742471
1684125110656666600,5.74566650390625,1.4748141941308974,17.765166872495413,4.642265541367233
1684125110666635500,5.755635498046875,0.6831260563015937,13.820665861374138,0.4057695428624749
1684125110676605400,5.76560546875,0.837702870029211,9.974067590600251,-2.4185274153783918
1684125110686574300,5.77557421875,1.412148771381378,7.668627917480468,-3.6521073798090216
1684125110696544500,5.78554443359375,1.2024305737335235,6.288803206598758,-3.736315649063885
1684125110706513400,5.795513427734375,0.2713338921487331,4.65516740077734,-3.7189696697264907
1684125110716483600,5.805483642578125,-0.79603354662247,2.551256846696138,-3.9174838248580692
1684125110726452500,5.815452392578125,-1.3864391605854034,0.17364742490053175,-4.4631908307209605
1684125110736422700,5.825422607421875,-1.1088392668444662,-2.4573458063334224,-4.877645199820399
1684125110746391600,5.8353916015625,-0.3041887715894729,-4.933204005435109,-4.6097307607263325
1684125110756361500,5.845361572265625,0.10063713374733925,-6.915466201922297,-3.6030525492608545
1684125110766331400,5.855331298828125,-0.10306297265477478,-8.42236597162187,-1.9497329688042402
1684125110776300500,5.865300537109375,-1.0718543018616735,-9.715297411948441,-0.16805150458961723
1684125110786270700,5.875270751953125,-1.8513024051904676,-11.124527081012726,1.2778114664755762
1684125110796239600,5.885239501953125,-1.8485960688412189,-12.698475018590688,2.2858584820762275
1684125110806209500,5.89520947265625,-1.4012521143138408,-14.145024072223901,3.269775703418255
1684125110816178700,5.9051787109375,-1.52298230497241,-15.124906046700477,3.999245577743649
1684125110826148600,5.915148681640625,-2.4470938769102095,-15.119533121490477,4.31643491987735
1684125110836117500,5.925117431640625,-2.9897043780624863,-13.068908751916885,3.9113007523089647
1684125110846087400,5.93508740234375,-1.5406395422160624,-10.507246246540547,1.7441681645087896
1684125110856057300,5.945057373046875,0.72261518612504,-8.996451222968101,-0.6127084119901061
1684125110866026500,5.955026611328125,1.8230945478379725,-8.404788813877106,-1.4312537232153117
1684125110875996700,5.96499658203125,0.3612286826074123,-8.191790790840983,-0.37556174386441704
1684125110885965600,5.974965576171875,-2.2857190736055375,-8.332103516894579,1.4722474123828113
1684125110895935500,5.984935546875,-3.9672918118610974,-8.852341442719101,2.414914193317294
1684125110905904600,5.994904541015625,-4.070273755168914,-9.589155250066518,2.4919693759471175
1684125110915874600,6.00487451171875,-2.935233952206373,-10.324520027649402,1.79291422136873
1684125110925843500,6.014843505859375,-1.4036730578504502,-10.721521449905634,0.8714960532333701
1684125110935813400,6.0248134765625,-0.69066755772233,-10.781747078287601,0.032120427686348554
1684125110945783600,6.034783447265625,-0.7368880416274071,-10.67566804574728,-0.6445015804834664
1684125110955752700,6.044752685546875,-0.87705639077425,-10.47447093514204,-0.996691801110655
1684125110965722600,6.05472265625,-0.9543828646261244,-10.216439592158794,-1.1568676769543438
1684125110975691500,6.06469140625,-0.883535231399536,-9.899532866358756,-1.2741954679355025
1684125110985661400,6.074661376953125,-0.7464123143631964,-9.599739772444963,-1.2718851451665163
1684125110995630600,6.084630615234375,-0.6205142634354531,-9.233286633187532,-1.116964194176346
1684125111005600500,6.0946005859375,-0.4025425436399877,-8.888705718520283,-0.9068310590520501
1684125111015569400,6.1045693359375,-0.7583807653807103,-8.609532218787074,-0.7140994328446686
1684125111025539300,6.114539306640625,-1.5400339775383471,-8.157364205104113,-0.2842670234799385
1684125111035508500,6.124508544921875,0.8715221375226974,-6.535600038862228,0.4351036277659237
1684125111045478700,6.134478759765625,7.9909379636287685,-2.4675731858372685,0.7917815152011811
1684125111055448600,6.144448486328125,10.089283869320154,2.476414663940668,-0.5761928911499679
1684125111065417500,6.15441748046875,2.6989386402130124,4.695472523158789,-2.472076342475414
1684125111075387400,6.164387451171875,-0.8645686651229858,6.171749191057682,-0.5851487894132733
1684125111085356500,6.1743564453125,-7.696441807079315,7.0686904319971795,3.5177953554749486
1684125111095326500,6.184326416015625,-7.088168454927206,10.021575191706418,5.433657034337521
1684125111105295400,6.19429541015625,4.154517387998104,18.56501376686096,3.176931415504217
1684125111115265300,6.204265380859375,7.613561279296874,25.37771225274801,-2.7939123413711786
1684125111125234400,6.214234375,-0.09287585209608078,24.73971596250534,-8.29858820078373
1684125111135204400,6.224204345703125,1.9396831378243862,18.5986939181447,-14.489859253913163
1684125111145174300,6.23417431640625,-0.4786722819879651,9.297656521767378,-19.903748926985262
1684125111155143200,6.24414306640625,-2.735730786037445,6.4022051293730735,-18.144172034811973
1684125111165113000,6.254113037109375,0.45285482690334317,9.07338424052298,-5.814625021159649
1684125111175082200,6.264082275390625,-0.06021043081283569,11.093160467368364,2.291792256039381
1684125111185052400,6.274052490234375,-1.2967315632618963,11.122770008212328,5.534190123188496
1684125111195021300,6.284021240234375,-0.11868366256952285,10.307318717479705,7.78222214795649
1684125111204991200,6.2939912109375,0.6863969677310436,8.405269290870427,9.081156043568253
1684125111214960400,6.30396044921875,-0.12690094435997307,5.532740508902073,7.965406047487258
1684125111224930300,6.313930419921875,-0.5723661724686623,3.0780817496955395,3.7443048942521213
1684125111234899200,6.323899169921875,0.09075871381163597,1.4315794480383395,0.28627368712723256
1684125111244869000,6.333869140625,0.6141383717279881,-0.07787059066593646,-1.3538358447529375
1684125111254839300,6.34383935546875,0.5442072688244283,-1.6131208410590887,-2.190867537522316
1684125111264808200,6.35380810546875,0.34864158823490143,-3.0846897696584463,-1.8126266375765203
1684125111274778400,6.3637783203125,0.43849546216130253,-4.28479562677145,-0.4615248939625919
1684125111284747300,6.373747314453125,0.678819299018383,-5.089627908334136,1.1953671381533144
1684125111294717200,6.38371728515625,0.7718366054117679,-5.765187328773736,2.5489362947940823
1684125111304686300,6.393686279296875,0.4579342855921015,-6.352835241526365,3.2437627257615325
1684125111314656300,6.40365625,0.18525131692197172,-6.826437672904134,3.4019729275554416
1684125111324625200,6.413625244140625,0.3045265156438574,-7.2519362908482545,3.2264836741805074
1684125111334595300,6.42359521484375,0.7187678630471229,-7.511670930618047,2.7097183929026127
1684125111344565500,6.4335654296875,0.9544622865378856,-6.83159081788361,2.2496362450942398
1684125111354534400,6.443534423828125,0.7386813547849654,-4.654771094936132,1.9239961777403949
1684125111364504300,6.45350439453125,0.23023849617242811,-2.4532009616136548,1.9284151632264255
1684125111374473200,6.46347314453125,-0.15754735397100447,-0.5159761767268181,1.7506915749281644
1684125111384443400,6.473443359375,-0.3348006944090128,1.7942799567639827,1.1265890046771616
1684125111394412300,6.483412353515625,-0.37681320523023604,4.1886943828880785,-0.069955433627218
1684125111404382200,6.49338232421875,0.22139994067847726,5.751590765097737,-1.5477334459997714
1684125111414351000,6.50335107421875,1.291225805452466,5.8239282715559,-3.144747055736184
1684125111424321300,6.5133212890625,2.0454104343175885,3.689221012672782,-4.108144343879819
1684125111434291500,6.52329150390625,1.9337725986063479,0.6486404338538646,-3.6680905463606117
1684125111444260400,6.53326025390625,1.0760030921041965,-1.2525725419312714,-2.7446628650337455
1684125111454230300,6.543230224609375,0.40508419094681736,-2.0168723220974205,-2.054869167536497
1684125111464199400,6.553199462890625,0.30577625997662544,-2.0297639523744584,-1.5576614041656254
1684125111474169300,6.56316943359375,0.09539397239685057,-1.7469325146555899,-1.1616594412755221
1684125111484138200,6.57313818359375,0.0595639404696878,-1.3402747907817363,-0.6453553477685898
1684125111494108200,6.583108154296875,0.36549686144590376,-0.8053904999673366,-0.09513342176452279
1684125111504077300,6.593077392578125,0.7077180612444878,-0.10933715755343437,0.4127972495421767
1684125111514047500,6.603047607421875,0.7672942858070134,0.5720253962069749,0.9198517956014722
1684125111524016400,6.613016357421875,0.7064134083867073,0.899272314235568,1.1807685578279197
1684125111533986300,6.622986328125,0.6830927385538816,0.6404179644316434,1.058250139401108
1684125111543956200,6.632956298828125,0.5153238502979278,-0.022326982620358465,0.7430632961962371
1684125111553925400,6.64292529296875,0.3973761007875204,-0.5378320347040891,0.378778952345252
1684125111563895300,6.652895263671875,0.3505225796759128,-0.6000222411572933,-0.01324402391128242
1684125111573864200,6.6628642578125,0.3930091377496719,-0.32067689198851584,-0.3843410434518009
1684125111583834400,6.67283447265625,0.3978898955285549,-0.012529226705431938,-0.6183084239542483
1684125111593803500,6.682803466796875,0.27763620716333387,0.02906710453033447,-0.7311652800664306
1684125111603773400,6.6927734375,0.33800738149583337,-0.13147183247208594,-0.7968973969101906
1684125111613742300,6.702742431640625,0.4759083702325821,-0.34237726714313027,-0.9586710633393376
1684125111623712300,6.712712158203125,0.37613749792575835,-0.4222024990081787,-1.1623485195182264
1684125111633682200,6.72268212890625,0.09237024979465641,-0.410931747931242,-1.3185121640458701
1684125111643651300,6.7326513671875,-0.15116203684806823,-0.3827086930096149,-1.2778294405236839
1684125111653621200,6.742621337890625,-0.2915969462429173,-0.4493400967806577,-1.129217891876027
1684125111663590100,6.752590087890625,-0.4057616518169641,-0.566754762327671,-0.9738583302728832
1684125111673560300,6.762560302734375,-0.446648373478651,-0.5648462983578443,-0.7770086012221873
1684125111683529500,6.772529541015625,-0.303026066219341,-0.4625263260900974,-0.5028489475956186
1684125111693499400,6.78249951171875,-0.04818506197631359,-0.2766208926409483,-0.14495587568432092
1684125111703468300,6.79246826171875,0.1327595707276836,0.0005079495221376419,0.23612627556938676
1684125111713438200,6.802438232421875,0.22295478717135264,0.2314461183965206,0.4736788941474631
1684125111723408100,6.812408203125,0.44908875236809254,0.3341682417243719,0.7503679931864142
1684125111733377300,6.822377197265625,0.4294126130500808,0.3286281432539224,0.8211939260378479
1684125111743347500,6.832347412109375,0.32516138045880943,0.3757131350338459,0.9607001580141484
1684125111753316400,6.84231640625,0.21104867906663566,0.28438626594543454,0.9709522335678339
1684125111763286300,6.852286376953125,0.042362675965763624,0.028891747963428496,0.9325253261484205
1684125111773255400,6.86225537109375,-0.11409748555673285,-0.39573417879939077,0.9225292711824178
1684125111783225300,6.872225341796875,-0.2007002487326972,-0.7036521269798278,0.9334604150414466
1684125111793194200,6.8821943359375,-0.3860439749121666,-0.5210562564700841,0.8613703074730932
1684125111803164200,6.8921640625,-0.643779549819231,0.12748188605308533,0.7276857673875987
1684125111813134000,6.902134033203125,-0.914886062952876,0.8376362345337868,0.552712354580313
1684125111823103200,6.912103271484375,-1.0705027411222456,1.3670634289860724,0.5326324202343822
1684125111833073400,6.922073486328125,-0.9316063116073607,1.5867214944332837,0.8054074511021375
1684125111843042300,6.932042236328125,-0.5670996302425861,1.453143629592657,1.3548152111791074
1684125111853012200,6.94201220703125,-0.24848845687853172,1.184815933522582,1.8632079470396041
1684125111862981400,6.9519814453125,-0.12351882764101027,0.9438175584048032,2.1919740374594925
1684125111872951300,6.961951416015625,-0.15066172264311462,0.8856178828924893,2.5242829150527712
1684125111882920200,6.971920166015625,-0.22800796064138412,0.8146142553865909,2.895119968482852
1684125111892890000,6.98189013671875,-0.25837496878914534,0.47404374540448185,3.0550498336762186
1684125111902859300,6.991859375,-0.14696860374622045,-0.04547697206139564,2.856426372951269
1684125111912829400,7.001829345703125,0.21841946356296538,-0.8500853817403315,2.208980847970396
1684125111922799400,7.01179931640625,0.4658639460802078,-1.825050358080864,1.2195116915896533
1684125111932768300,7.021768310546875,0.18256247969679534,-2.8261604140251873,-0.0553802341774106
1684125111942738200,7.03173828125,-0.2335328615427017,-3.9763837575942276,-1.511902692553401
1684125111952707300,7.041707275390625,-0.3202045983016491,-5.22188592274785,-2.988089051820338
1684125111962677200,7.05167724609375,-0.9940297422945499,-6.284757146078348,-4.211065496911108
1684125111972646100,7.061646240234375,-2.3089237158432603,-7.427029822903871,-5.30484243837595
1684125111982616000,7.071615966796875,-3.0364754815876482,-8.263733745023607,-5.746138929432631
1684125111992585200,7.081585205078125,-0.15756459736675024,-8.052600931337475,-4.942761522853374
1684125112002555400,7.091555419921875,4.992869077324867,-6.080660222378373,-2.47305366307497
1684125112012525300,7.101525390625,8.229532784736156,-3.332782486951351,0.1206295359402895
1684125112022494200,7.111494140625,8.222708491674066,-0.8491302729725837,2.1947312272131443
1684125112032464400,7.12146435546875,6.070409461998939,1.021174938851595,4.43816335697025
1684125112042433300,7.131433349609375,3.6076632579267023,1.7336732201099394,6.60851797555685
1684125112052403200,7.1414033203125,1.3449682092949746,0.9797796831458806,7.682989620310067
1684125112062372000,7.1513720703125,-0.6419713313534855,-0.5041127204537391,7.127458847308159
1684125112072342300,7.16134228515625,-4.460561359000206,-1.374720081219077,5.107012758377194
1684125112082311400,7.1713115234375,-9.012235652077198,-0.978029624608159,2.108493205696344
1684125112092281300,7.18128125,-10.651357780355214,-0.4995481890171766,-0.965771031537652
1684125112102251300,7.191251220703125,-8.561565767997502,-0.9698901572942733,-4.528006417241692
1684125112112220200,7.20122021484375,-2.6804864531993866,-2.198600762122869,-9.088939537051319
1684125112122186500,7.2111865234375,4.830419922786951,-4.065002536767721,-13.767821575415134
1684125112132155400,7.2211552734375,4.926963065218925,-5.761555694273114,-15.761344001585245
1684125112142125600,7.23112548828125,0.8905170531108975,-5.690374372112751,-11.071735402023792
1684125112152094700,7.2410947265625,-0.34139000967144967,-3.701903968635201,-4.255378978151083
1684125112162064600,7.251064697265625,-1.8285905149057506,-1.8034616266071795,0.2276777057737112
1684125112172033500,7.261033447265625,-2.5426100143820047,0.7159200724005699,3.874226866933703
1684125112182003500,7.27100341796875,-1.1744497300699352,3.8198160623103377,6.607190526345372
1684125112191973400,7.280973388671875,0.7346750417530536,7.5207321889519685,8.054179724961518
1684125112201942500,7.290942626953125,1.785116699360311,11.144269892358778,8.262493389573693
1684125112211912400,7.300912353515625,0.4860255673602223,12.91294662131071,7.803442046117782
1684125112221881300,7.31088134765625,-1.7576050075784324,11.568492499017715,6.377883758065104
1684125112231851500,7.3208515625,-2.0501685886301098,7.729967060062289,3.4751878013700246
1684125112241820700,7.330820556640625,-0.807124191892147,4.123012242665887,0.6547995410054922
1684125112251790600,7.34079052734375,0.7620122537508607,1.641861782374978,-1.5255238061487675
1684125112261759500,7.350759521484375,1.397642983905971,0.17685352746546268,-3.3866689754396675
1684125112271729400,7.3607294921875,1.3941313225232064,-0.18306816419661043,-4.861012629449367
1684125112281699300,7.37069921875,1.737170999097824,0.5285287843078375,-5.941019111976027
1684125112291668500,7.38066845703125,2.690077580626309,2.1650532973080874,-6.589277268514037
1684125112301638700,7.390638671875,3.563033842605352,4.577258816188573,-6.488987925291061
1684125112311607600,7.400607666015625,4.49846994163394,7.669872949105501,-6.0977861292243
1684125112321577500,7.410577392578125,4.215384821414947,11.325654048991202,-5.966517125847935
1684125112331546600,7.420546630859375,3.4616987897217273,14.370593407541513,-6.266439399099349
1684125112341516500,7.4305166015625,3.926260421031713,15.632564476937056,-6.527216241398453
1684125112351486500,7.440486572265625,5.185619846624136,15.079755237853526,-6.644547320315241
1684125112361455400,7.450455322265625,5.2409126947790385,13.495460093784331,-5.97909603691399
1684125112371425300,7.46042529296875,3.729501000612974,11.850586270111798,-4.411880914722383
1684125112381394400,7.47039453125,2.1895605465769767,10.601405708706379,-3.0016759708851573
1684125112391364600,7.480364501953125,0.664881959080696,9.602411037480831,-1.9717565845638512
1684125112401333500,7.49033349609375,-0.23506211693659423,8.691291049063205,-1.0819801206871866
1684125112411303400,7.500303466796875,-0.8809444842539728,7.441087574350833,-0.4030442095518112
1684125112421272600,7.5102724609375,-1.215193974521011,5.544958769962191,-0.08818447940945624
1684125112431242500,7.520242431640625,-1.1237399719215928,3.589112286713719,-0.23715631273686885
1684125112441212400,7.53021240234375,-1.2040148472502827,1.6587246543705463,-1.5129593619994819
1684125112451181300,7.540181396484375,-1.227743951753527,-0.23194530009031294,-3.5442303579360246
1684125112461151500,7.5501513671875,-1.1635751387037336,-2.183125545093417,-5.340200167483091
1684125112471120600,7.56012060546875,-0.8738532108187675,-4.519550139063597,-6.260124224603175
1684125112481090600,7.570090576171875,-0.4832885436117649,-6.672677436256408,-5.846949666181207
1684125112491059500,7.5800595703125,-0.36433249384164806,-8.404197277724743,-4.346910429900884
1684125112501029400,7.590029296875,-0.22868965929523108,-9.819495453047752,-2.1703673319377006
1684125112510998500,7.59999853515625,-0.033612492875009774,-10.733842002296447,0.2664455355852842
1684125112520968400,7.609968505859375,-0.3243944512069225,-11.434211454343796,2.4917267993628975
1684125112530938400,7.6199384765625,-0.9785502874813974,-11.790767468965052,4.4017970353424545
1684125112540907300,7.6299072265625,-1.6402561007440088,-11.973257541012764,5.634801537972688
1684125112550877700,7.639877685546875,-1.7714415174901483,-11.59729656869769,6.207662215960025
1684125112560846600,7.6498466796875,-1.5178957954883574,-10.32015949435234,6.0787424060583115
1684125112570816500,7.65981640625,-1.1554022075116634,-9.08427563689351,3.743169460481405
1684125112580785400,7.669785400390625,-0.5417338644482195,-8.551101657128333,0.5672862388558686
1684125112590755600,7.679755615234375,0.04242912879809737,-8.953571866184472,-1.4511201609410345
1684125112600725500,7.6897255859375,0.10660627128481864,-9.679280926671623,-1.933510294408351
1684125112610694400,7.6996943359375,-0.9048327248416841,-9.823743758141994,-0.09191182936951517
1684125112620664600,7.70966455078125,-2.670081963562965,-9.729835055866836,2.1221363849930466
1684125112630633500,7.719633544921875,-4.078361200034618,-9.882531462675333,3.9540839552417397
1684125112640603600,7.729603759765625,-4.478801949089766,-10.535132616853714,5.045788182085752
1684125112650572500,7.739572509765625,-3.863369372832775,-11.59746491100192,4.760210660529136
1684125112660542500,7.74954248046875,-2.7290871102392673,-12.231106513166427,3.243333686694503
1684125112670512400,7.759512451171875,-1.3549205712497234,-12.116360190045834,1.3705008560888468
1684125112680481500,7.7694814453125,-0.20562544844150543,-11.566184806597231,-0.06810600636824965
1684125112690451500,7.779451416015625,0.15885083778500556,-10.646910737818478,-0.8038298265218734
1684125112700420600,7.789420654296875,-0.15313172948583958,-9.485174066588282,-0.8159852514788508
1684125112710390500,7.799390625,-0.7051986257694661,-8.448450260949134,-0.3351728887222707
1684125112720359700,7.809359619140625,-1.1410568712949751,-7.757108164966106,0.14816811572909355
1684125112730329600,7.81932958984375,-1.0868972649537025,-7.308366618600488,0.4668279688067734
1684125112740298500,7.829298583984375,-0.6216156488060951,-7.044774718880653,0.4844935354873538
1684125112750268400,7.839268310546875,-0.1468904970087111,-6.928882732856273,0.20922069645449518
1684125112760238300,7.84923828125,-0.568031504265219,-6.805539846304058,-0.31317616096958517
1684125112770207500,7.85920751953125,-1.5523196047462522,-6.385541579341888,-0.8516247932020574
1684125112780177700,7.869177734375,-0.9949055022157728,-5.353975010335445,-1.6569377709537743
1684125112790146600,7.879146484375,1.5703262399494646,-4.027869030159712,-2.938251254200935
1684125112800116500,7.889116455078125,1.184214314367622,-2.0669629254341126,-3.9564690968126057
1684125112810085600,7.899085693359375,-3.1227368839800356,0.7236918754458427,-3.580460778224468
1684125112820055600,7.9090556640625,-4.933681559818983,3.2406244277358054,-2.64468974815309
1684125112830025500,7.919025390625,-0.9781343270916492,7.851739336296916,-2.020329769074917
1684125112839994400,7.928994384765625,7.042802542024851,16.787209144079686,-3.8207302545458077
1684125112849964500,7.938964599609375,1.5327555109679698,20.951193448603153,-10.089242952787876
1684125112859933700,7.94893359375,-7.299492991793155,16.712121462130547,-15.185330412524937
1684125112869903600,7.958903564453125,14.266788165152072,18.111808226823804,-17.90680354062915
1684125112879872500,7.96887255859375,7.039224099016189,16.871655021482706,-11.753181542414426
1684125112889842400,7.978842529296875,-2.965529721748829,12.987388991093635,-2.046357067517936
1684125112899812400,7.988812255859375,2.542142981392145,9.839598329877854,5.129259076976775
1684125112909781500,7.998781494140625,5.307634114921092,8.020035463297367,8.165360464555025
1684125112919751400,8.00875146484375,4.00886739256978,8.41416103785634,7.730249384135007
1684125112929720300,8.01872021484375,2.3480302760899066,10.72518289502263,4.020634110470116
1684125112939690500,8.0286904296875,0.26755554265379905,12.10276888706684,-2.052562644159794
1684125112949659600,8.03865966796875,-0.733205699852854,11.47743100286722,-7.363086635303497
1684125112959629600,8.048629638671875,0.6759340259056538,9.638526306957006,-10.836159051954745
1684125112969599500,8.058599609375,0.8930662992022931,6.617588001719117,-11.374778437644242
1684125112979568400,8.068568359375,0.940977366542816,3.910813261052966,-8.265888877230882
1684125112989538300,8.078538330078125,0.958938409038633,2.3037907368689776,-4.3353401113554835
1684125112999507500,8.088507568359375,0.9680138420283794,1.3400614402920006,-1.119281385077536
1684125113009477600,8.0984775390625,0.9863011938691139,0.8144161024659872,1.7069830738440155
1684125113019446500,8.108446533203125,0.5403717823147773,0.46894145382940766,3.91107600364238
1684125113029416400,8.11841650390625,0.03934314548149705,-0.09059270959496497,5.318040942645073
1684125113039386600,8.12838671875,-0.16141922696828842,-1.0590578025221824,6.024028819096088
1684125113049355500,8.13835546875,-0.10051087701916694,-2.266899806845188,5.968529634714126
1684125113059325400,8.148325439453124,-0.025900164932012557,-3.738935768434405,4.952884857460856
1684125113069294300,8.15829443359375,-0.11364157674908637,-4.9808857940644025,3.3855455243676897
1684125113079264500,8.168264404296876,-0.25853629683069884,-5.6780082270145416,1.744131193499267
1684125113089233400,8.1782333984375,-0.31780572046637534,-5.798575803634524,0.4412760327905416
1684125113099203600,8.18820361328125,-0.22986674025058745,-5.795637412095069,-0.5647087895832955
1684125113109173500,8.198173583984374,-0.34704474749751385,-5.647974907800555,-1.0891530810564756
1684125113119146500,8.208146484375,-0.8030279355544596,-5.362201571410894,-1.0758926174670458
1684125113129116400,8.218116455078125,-1.0238334174711257,-5.234748911452293,-0.7734266510821879
1684125113139085600,8.22808544921875,-0.8322352522730827,-5.314470098420977,-0.32582872179374095
1684125113149055500,8.238055419921874,-0.5074946910422296,-5.382077653747797,0.06657850454002619
1684125113159024400,8.2480244140625,-0.25521511651873585,-5.247005750957131,0.5428437253862619
1684125113168994300,8.257994384765626,-0.30503979892823846,-4.757459900516271,0.9543046117581426
1684125113178964700,8.26796484375,-0.5916507551858201,-4.177554564714431,1.4892558303289114
1684125113188933600,8.27793359375,-0.8143488824486732,-3.3539252282232046,2.0281978721015155
1684125113198903600,8.287903564453124,-0.8329646625261753,-2.2726672843307254,2.4111488494344053
1684125113208872400,8.29787255859375,-0.9074059363305568,-1.0211398675382137,2.6869688009560107
1684125113218842600,8.307842529296876,-1.2795347831368447,0.2591583011865616,2.519891694356501
1684125113228812500,8.3178125,-1.6031728630185127,1.5001672465741633,1.8484826715946197
1684125113238781400,8.327781494140625,-1.496782864832878,3.06832666387856,0.8383367840185761
1684125113248751400,8.33775146484375,-1.1144283920884133,5.124716757372021,-0.1987305743612349
1684125113258720500,8.347720458984375,-0.4194306962072849,7.1622986900210375,-1.1036796190589666
1684125113268690700,8.357690673828126,0.6559434503436088,8.511715987679361,-1.8637400080896913
1684125113278659600,8.36765966796875,1.4893091679513453,7.718391188558936,-1.809142740983516
1684125113288629500,8.37762939453125,1.3752350450038908,3.5053391940057277,-0.1466556653395295
1684125113298599400,8.387599365234376,0.5225239909350872,-0.292783507412672,1.1159048213165252
1684125113308568600,8.397568603515625,-0.21649753732336685,-2.326124733752012,1.37160896346122
1684125113318538500,8.40753857421875,-0.47929859719276424,-3.3324048858106132,1.3787044746801256
1684125113328507400,8.41750732421875,-0.31325814016461373,-3.7134903615325685,1.5424778635591267
1684125113338477600,8.4274775390625,-0.10136310993432998,-3.5748008527666326,1.866145461796224
1684125113348446700,8.43744677734375,0.013678944729827343,-2.847168130740523,2.0496593239337204
1684125113358416600,8.447416748046875,0.35474859987311064,-1.4495306997925042,1.728424944192916
1684125113368386600,8.457386474609375,0.9810895967006683,-0.11883388469517231,0.8278841443914919
1684125113378355500,8.46735546875,1.2583236528038977,0.6966553999602795,-0.06160137371458113
1684125113388325400,8.477325439453125,1.1181389370441437,0.9494044186264275,-0.7850111442834138
1684125113398294500,8.48729443359375,0.8212754668414592,0.6633347296386957,-1.4809066657871006
1684125113408264400,8.497264404296875,0.20942597323562948,0.14379764555990696,-1.9949451524496078
1684125113418233300,8.5072333984375,-0.6052046122312545,-0.25555939991176124,-2.1183179957486686
1684125113428203500,8.51720361328125,-1.198523556357622,-0.4729518585145473,-2.029081815329194
1684125113438173400,8.52717333984375,-1.3086930730819701,-0.47199148904979227,-1.9177566988289354
1684125113448142600,8.537142578125,-0.8192506830155849,-0.278374458310008,-1.8327476345852016
1684125113458112500,8.547112548828125,0.08691255977749825,0.08498714467287063,-1.8261235402703284
1684125113468081400,8.557081298828125,0.9882394684553146,0.4762023847430944,-1.7080187005020677
1684125113478051300,8.56705126953125,1.40862059725523,0.796491738718748,-1.4660174319520591
1684125113488021500,8.577021484375,1.591416958773136,1.0674036060631276,-1.1655575446926056
1684125113497990700,8.58699072265625,1.962462101995945,1.1351362490743397,-0.9717597505584359
1684125113507960600,8.596960693359375,1.9788404053449629,0.9446353045284748,-0.8834892003007233
1684125113517929500,8.606929443359375,1.3635656499981879,0.6043991410672664,-0.7631090360116213
1684125113527899400,8.6168994140625,0.6354921984672546,0.1319967331290245,-0.5336948618341237
1684125113537868500,8.62686865234375,-0.04460954157710075,-0.3299403948962688,-0.29658655295744535
1684125113547838500,8.63683837890625,-0.5669908726384862,-0.56362347856462,-0.04831022272594273
1684125113557808400,8.646808349609374,-0.7271113285005092,-0.5834358480155467,0.2239236139371991
1684125113567777300,8.65677734375,-0.6591618278682232,-0.5014321030676364,0.44937326839789743
1684125113577747500,8.66674755859375,-0.4612205407211557,-0.23386779258549212,0.5599263045471161
1684125113587716600,8.676716552734375,-0.054189891881681974,0.10669044243693351,0.4792085077565163
1684125113597686500,8.6866865234375,0.3883305880120024,0.25738544629514215,0.2159155909832567
1684125113607655400,8.696655517578124,0.5393161357820033,0.09583177929222583,-0.09318287221863865
1684125113617625600,8.70662548828125,0.473239406751655,-0.21690496734678744,-0.2728185046833008
1684125113627595500,8.716595458984376,0.4814039719741791,-0.501526211091876,-0.29829847144186494
1684125113637564400,8.726564453125,0.4768833162119612,-0.6658452511548996,-0.28756190030686557
1684125113647534600,8.73653466796875,0.3304570757141337,-0.6665887629985809,-0.22342976600565015
1684125113657503500,8.74650341796875,0.18574819706082343,-0.5539923113882541,-0.0515808418944478
1684125113667473700,8.7564736328125,0.07670680758357047,-0.361708575078845,0.08165420085787772
1684125113677443600,8.766443603515626,-0.0810369457423687,-0.05759761796593666,0.16649404601454734
1684125113687412500,8.77641259765625,-0.12712649674415588,0.1754284630984068,0.31294673612788315
1684125113697382400,8.78638232421875,-0.11788991837594658,0.10461772781610489,0.42595827134512365
1684125113707351600,8.7963515625,-0.17452303869128227,-0.09998597636222839,0.5397033815339207
1684125113717321500,8.806321533203125,-0.19897125124931334,-0.19923662418723107,0.680945497392118
1684125113727290400,8.816290283203125,-0.16039401210639626,-0.1215922434926033,0.7263756346371024
1684125113737260500,8.826260498046874,-0.13448679637908934,0.07013795058727264,0.6942568143859505
1684125113747230500,8.83623046875,-0.12202595873475074,0.2717342896431684,0.6134579151831567
1684125113757199600,8.84619970703125,-0.09997432245705276,0.39762510711252685,0.5685228679787367
1684125113767169500,8.85616943359375,-0.08129300286266952,0.3803793732792139,0.5551962072852998
1684125113777138400,8.866138427734375,-0.08979428922627121,0.19507716642022133,0.5571480720054358
1684125113787108400,8.8761083984375,-0.11353986994028091,-0.08560089265704154,0.5309377451457082
1684125113797078500,8.88607861328125,-0.1954009915471077,-0.2812076359093189,0.43772593909353014
1684125113807047700,8.896047607421876,-0.266925464589335,-0.19030454519093035,0.33369350035209205
1684125113817017600,8.906017578125,-0.30667642368674275,0.18926818788051605,0.3387279873879626
1684125113826986500,8.915986572265625,-0.011148001480102539,0.8437140931427478,0.5851474742390215
1684125113836956400,8.925956298828124,0.5248959807634354,1.7474264356523752,1.0771342880912125
1684125113846925600,8.935925537109375,0.4952116211175918,2.0954905162602664,1.8239551101900635
1684125113856895500,8.9458955078125,-0.5996353241989388,1.2911340355157852,2.1480071777001024
1684125113866865400,8.955865478515625,-1.4384300445854663,-0.18950433472394942,1.7046017316654323
1684125113876834300,8.965834228515625,-1.1221277144193649,-1.2269739902943373,0.9458661614976823
1684125113886804500,8.975804443359374,-0.5199474184453488,-1.4769377621561288,0.4167064588751644
1684125113896773600,8.985773681640625,-0.17344872399065642,-1.1639467484951018,0.6327387350406497
1684125113906743600,8.99574365234375,-0.047777650219202036,-0.6170598851978778,1.348608027102053
1684125113916713500,9.00571337890625,-0.11235917225573211,-0.05856091004014015,2.318217613889277
1684125113926682400,9.015682373046875,-0.49462600324936207,0.3549316282898187,3.1828739572957154
1684125113936652500,9.025652587890624,-1.1677357655145226,0.4319026397675276,3.7222722184032198
1684125113946621400,9.035621337890625,-1.7368284692704676,0.35502573631405826,4.1177480385273695
1684125113956591600,9.045591552734376,-2.0161820017457006,0.16204115825891494,4.1802796057641505
1684125113966560500,9.055560546875,-1.9434546191871165,-0.06482581565380097,4.066024865552783
1684125113976530400,9.065530517578125,-1.4230863449811935,-0.3284212225049734,3.722164374114573
1684125113986500600,9.07550048828125,-0.7150970655798912,-0.6315706411093474,3.236484843713045
1684125113996469500,9.085469482421875,-0.2415104162931442,-0.9581184709578752,2.6234263031110165
1684125114006439400,9.095439453125,-0.03566423777304589,-1.3104630053639412,1.9609310930363832
1684125114016408300,9.105408203125,-0.03271466725245118,-1.706665386196971,1.211231939022243
1684125114026378500,9.11537841796875,0.1386215580962598,-2.2354291483044624,0.34030835191458464
1684125114036348700,9.1253486328125,0.38295536124706264,-2.586279644760489,-0.5884273726925253
1684125114046317600,9.135317626953125,0.5529685212984681,-2.926203673532605,-1.5755325764209032
1684125114056287500,9.14528759765625,0.9043328124955295,-3.750007197546959,-2.755218453578651
1684125114066256600,9.155256591796874,2.06930831951648,-5.126041283974051,-4.004704719932377
1684125114076226600,9.1652265625,3.6918402552604674,-7.194414660727977,-5.258447182425856
1684125114086195500,9.175195556640626,4.748002336341142,-9.24485198329687,-5.8103732089340685
1684125114096165400,9.185165283203125,5.079648366111517,-10.08552071739435,-4.3450525270745155
1684125114106135600,9.195135498046875,4.137482374306023,-9.29636472839117,-0.40984015330225226
1684125114116104700,9.205104736328124,2.1301704922363163,-8.475541681492329,3.690237203978002
1684125114126071800,9.21507177734375,-1.9218147420480847,-7.278891517791152,6.448417429971695
1684125114136040700,9.225040771484375,-6.238160230076312,-4.888251349508762,7.180729834246635
1684125114146010600,9.2350107421875,-7.238377721095085,-2.9029870485961435,5.391130144253373
1684125114155980500,9.24498046875,-3.3073519853577014,-1.8811457547903059,1.88125038420856
1684125114165949700,9.25494970703125,-0.5760632734209299,-0.019139000234007834,-1.727428188240528
1684125114175919600,9.264919677734374,0.05731587841510773,1.6650047575533389,-4.5857203550636765
1684125114185888500,9.274888427734375,-0.6254337457895278,2.7893577468067408,-8.116577436685562
1684125114195858700,9.284858642578126,-1.3497215413019061,3.5643203752845523,-11.943047111666202
1684125114205827800,9.294827880859375,-1.630923624253273,3.0316946770519015,-14.478123223412036
1684125114215797800,9.3047978515625,-0.9829290870875119,1.664715419217944,-14.507405431997775
1684125114225767700,9.314767578125,0.7128834811836481,1.403519474723935,-10.269500151216983
1684125114235736600,9.324736572265625,1.263727849934995,1.4512158764004706,-3.9558021573364734
1684125114245706500,9.33470654296875,1.9076967848464845,0.592079757720232,0.41072424266040325
1684125114255675600,9.344675537109374,2.4746263192191718,0.1663303798854351,3.354000631546974
1684125114265645800,9.354645751953125,2.5815622608497737,0.39344694464504715,5.244599858859181
1684125114275615700,9.36461572265625,2.5467434609249233,0.8384493044823408,5.5185144151508805
1684125114285584600,9.374584716796875,2.34309077386111,0.973762614813447,3.4748283204078674
1684125114295554600,9.384554443359375,1.947042122285068,0.9840396786779164,0.14326748420596122
1684125114305523700,9.394523681640624,1.424700502179563,1.4128361691236495,-2.7936364470392463
1684125114315493600,9.40449365234375,1.4885548424527049,2.173231927588582,-5.35558829075098
1684125114325463600,9.414463623046874,2.08884450237453,3.454628997465968,-7.2429434215754265
1684125114335432400,9.424432373046875,1.5481518175423143,5.187827001279592,-8.192873909902572
1684125114345402600,9.434402587890625,0.06234656605869531,6.634331046727299,-8.19847129151821
1684125114355371800,9.444371826171874,-0.2720128143236041,7.322748779696226,-7.508163799279928
1684125114365341700,9.454341796875,-0.1929343091726303,7.308588152396679,-6.152515498277545
1684125114375310600,9.464310546875,0.6594517507255077,6.950045347872376,-4.689667636272311
1684125114385280500,9.474280517578125,1.8638275402426718,6.744782887524366,-3.622257015946507
1684125114395250400,9.48425048828125,2.263055990898609,7.129853633490204,-3.2258138120949265
1684125114405219600,9.494219482421874,2.0864191749237477,8.056921132624149,-3.512277468836307
1684125114415189800,9.504189697265625,2.571565182970464,8.979918605840206,-4.4644852544456715
1684125114425158700,9.51415869140625,3.7176726156532762,9.522601587706804,-5.708060835450888
1684125114435128600,9.524128662109375,4.409811999493837,9.731839381426573,-6.730512370109557
1684125114445098800,9.5340986328125,3.8301261516615748,9.89836966779828,-7.114580661034584
1684125114455067600,9.544067626953124,2.68594471860528,9.900472777557372,-7.0217328659892075
1684125114465037600,9.55403759765625,1.1857283721923828,9.48816389605403,-6.6112570451319215
1684125114475006500,9.56400634765625,-0.09245485020503401,9.020628217369318,-5.795258641910553
1684125114484976600,9.5739765625,-0.5081728094995022,8.827012355673313,-4.25626949725002
1684125114494946800,9.58394677734375,0.10617606317400932,8.898999733519554,-2.047768980142474
1684125114504915700,9.593915771484374,0.9084639209508896,8.842437303820251,0.3422074635341763
1684125114514885600,9.6038857421875,0.5391629910469055,7.689953029581904,1.6125167376860976
1684125114524854800,9.613854736328125,-0.5609948836266995,5.491740389993787,1.3232814242742954
1684125114534824700,9.62382470703125,-1.1426711746238172,2.6428110947996375,0.007276859135180711
1684125114544793600,9.633793701171875,-0.36361945020146663,-0.5700543883949518,-1.548192149552703
1684125114554763500,9.643763427734376,0.2533750416100025,-3.5531472393631933,-2.000441850169748
1684125114564733700,9.653733642578125,0.5786755017459392,-6.3850470738232135,-0.7872543931655586
1684125114574702800,9.663702880859375,1.0847685092967003,-8.874386101266742,1.6363780902668832
1684125114584672800,9.6736728515625,2.1209727480411527,-10.51733041818142,4.470427211715281
1684125114594641700,9.6836416015625,3.8120541961371894,-11.362247457373142,6.590324731740355
1684125114604611600,9.693611572265626,4.019034566318989,-11.347169130706787,7.5079457726150745
1684125114614581500,9.70358154296875,1.0062718956869094,-10.610306808042525,6.82864541208148
1684125114624550700,9.713550537109375,-2.9052152460396288,-10.143000261938571,5.271398433935642
1684125114634520600,9.7235205078125,-5.203454778522253,-10.53010572860241,3.5298400135338306
1684125114644489500,9.733489501953125,-5.63474308578372,-11.259461621159314,2.275704752330482
1684125114654459600,9.743459716796876,-4.759732521623373,-11.730782663601635,1.743274138278514
1684125114664429600,9.7534296875,-2.9625989289939403,-11.963208440685271,1.560404711524397
1684125114674398700,9.763398681640625,-1.2205984639130532,-11.595214501726627,1.3271134036526082
1684125114684368600,9.77336865234375,-0.41608942295536394,-10.434945564961433,0.6748994952261448
1684125114694337500,9.783337646484375,-0.6892249576985836,-9.682091892439127,-0.2083390913143754
1684125114704307500,9.793307373046876,-0.9989666141748428,-9.550980709972977,-0.8832122830554843
1684125114714277600,9.803277587890625,-1.5281835268773138,-9.573350362691283,-1.2820067262083292
1684125114724246800,9.813246826171875,-2.377053103087097,-9.58172948397994,-1.5442904659390448
1684125114734216700,9.823216796875,-2.4151113233245907,-9.543280803120135,-1.3328352884307504
1684125114744185600,9.833185546875,-1.7136955770947038,-9.714688924661278,-0.8874860148519277
1684125114754155500,9.843155517578126,-0.9819558581411838,-10.091900189298391,-0.5063431098543107
1684125114764124700,9.853124755859374,-0.6285339037619531,-10.505960298383235,-0.02297521739602089
1684125114774094600,9.863094482421875,-0.474411848064512,-10.649997013396025,0.6207628313690423
1684125114784064500,9.873064453125,-0.5404889789536595,-10.421086550956964,1.2223467688851057
1684125114794033400,9.883033447265625,-0.9785178465165197,-9.935198053979873,1.5548635901406407
1684125114804003800,9.89300390625,-1.6236908965207635,-9.366161318194866,1.7669784006014466
1684125114813972700,9.90297265625,-2.0492226860821248,-8.823579458615184,1.8576378918223082
1684125114823942700,9.912942626953125,-2.043172738393396,-8.46768570729494,1.7925012566536664
1684125114833912600,9.92291259765625,-1.7650775354161858,-8.370116144424676,1.60458594468683
1684125114843881700,9.9328818359375,-1.4472213999368249,-8.538089030820132,1.3953722624950111
1684125114853851600,9.9428515625,-1.1628865719176829,-8.889708758082985,1.2686004244074225
1684125114863820500,9.952820556640624,-0.8990180472135544,-9.33327377859354,1.2103268068760633
1684125114873790700,9.962790771484375,-0.737298375993967,-9.657689272588492,1.0924648359529674
1684125114883760600,9.9727607421875,-0.7414706932425499,-9.78460417240858,1.0470803644806146
1684125114893729800,9.982729736328125,-1.5354383203111588,-9.440517763260006,0.9865671513289213
1684125114903699700,9.99269970703125,-2.981179710823297,-8.145216671192646,0.7712155509039759
1684125114913668600,10.002668701171874,-0.048572746119648215,-5.615792301598191,0.298963218960911
1684125114923638500,10.012638427734375,10.5263542671144,-0.45318741985857486,-0.8761454134091734
1684125114933608400,10.0226083984375,10.105227288383245,6.513697419133782,-2.2346178319215775
1684125114943577600,10.03257763671875,-9.142353731852769,8.679331731200218,-2.367328266277909
1684125114953547800,10.0425478515625,-5.973156709992885,11.698915699219704,-2.0148320484414697
1684125114963516700,10.0525166015625,9.985319636976719,20.82848126116991,-1.7832503209665416
1684125114973486600,10.062486572265625,-0.9013689942538737,23.364111499667167,-4.018328756137192
1684125114983456500,10.07245654296875,-3.0898610348165034,27.77692911071777,-8.442178925594687
1684125114993425700,10.08242578125,15.069661713862418,31.451995925831792,-12.86223700929284
1684125115003395600,10.0923955078125,6.647734133657813,24.530405688071248,-7.2300576365172855
1684125115013364500,10.102364501953126,-4.434280962578952,16.45332322642803,3.5079148897126315
1684125115023334700,10.112334716796875,-2.083327200257778,9.697797995615005,8.1581696762681
1684125115033304600,10.1223046875,1.1019790987513958,4.984431503847241,8.495503688547014
1684125115043273700,10.132273681640624,4.995086753374338,3.146833214360475,6.55432110594511
1684125115053243600,10.14224365234375,4.342212919734418,4.928012866532803,1.8698805566713212
1684125115063212500,10.152212646484376,0.6934522200047969,9.209780669915675,-3.8971807492807504
1684125115073182500,10.162182373046875,-2.406935031131655,10.991279471039771,-9.16143018824458
1684125115083151600,10.172151611328125,-2.0526783794939516,9.673090839859842,-14.136308850848675
1684125115093121500,10.18212158203125,-1.5792678174264727,6.674106592276692,-16.69058884475827
1684125115103091700,10.192091796875,-1.255785804889351,3.4935809516727923,-15.286469066053629
1684125115113060600,10.202060546875,-1.0649724333934485,0.8274199609458446,-10.852889237481355
1684125115123030500,10.212030517578125,-0.9350434464491904,-0.9810890121787786,-6.404619204777479
1684125115132999400,10.22199951171875,-0.389196885985136,-1.9124767125993967,-2.263442652128637
1684125115142969300,10.23196923828125,-0.023384382718801496,-2.337833291724324,1.7614383021309972
1684125115152939300,10.241939208984375,-0.08922697419971228,-2.4324580333143473,5.334166732537746
1684125115162908400,10.251908447265626,-0.38272169862166044,-2.490215225756168,8.152546575689316
1684125115172878300,10.26187841796875,-0.8734102893568575,-2.5489082377433774,10.086834722602367
1684125115182847200,10.27184716796875,-1.3186780221320689,-2.9157477459698913,10.829265200787782
1684125115192817400,10.2818173828125,-0.7830385290361941,-3.923651699838042,9.61947673857212
1684125115202787300,10.291787353515625,0.4748422023057937,-5.0700025858879085,5.4464983957320445
1684125115212756500,10.301756591796876,1.475230227585882,-5.1859746514111755,0.6918059141024947
1684125115222726400,10.311726318359375,1.8632498864851892,-4.690070371854305,-3.074408321879804
1684125115232695300,10.3216953125,1.5322247650921343,-4.193091156542301,-5.554578831222653
1684125115242665200,10.331665283203124,0.7478442468624562,-3.4526392849534746,-6.440585421171784
1684125115252635400,10.341635498046875,1.0686918192427606,-2.7232313699483868,-5.678183583581447
1684125115262604500,10.3516044921875,2.314198149114847,-2.5452041225284336,-3.642938569447398
1684125115272574500,10.361574462890625,2.8820576578140256,-2.846124174645543,-1.6177718817353248
1684125115282543400,10.37154345703125,2.647932091075182,-3.2036312063813206,-0.2448708326369524
1684125115292513300,10.38151318359375,2.0788556078016756,-3.4711651217252015,0.3862891818448901
1684125115302483200,10.391483154296875,1.4907434385381637,-3.3737866975128648,0.45228024188578125
1684125115312452400,10.401452392578125,0.5925555585384369,-2.5834774468213317,0.3006825900994241
1684125115322422300,10.41142236328125,-0.43135969199724494,-1.1946470071852207,0.1986956491783261
1684125115332391200,10.42139111328125,-1.2078467535633592,0.3227215495586395,0.13393939162939786
1684125115342361300,10.431361328125,-1.3017676577329635,1.5367086325079202,0.004345335727930068
1684125115352331500,10.44133154296875,-1.0660744763512164,2.155907283300161,-0.17314108281359075
1684125115362300400,10.451300537109375,-0.5730301893353462,2.1359072823226453,-0.2906833202630281
1684125115372270300,10.461270263671874,-0.13375490190796555,1.2766601044833659,-0.37773616529405113
1684125115382239200,10.4712392578125,-0.14625899417214094,-0.17148937008380888,-0.42070071614310145
1684125115392209400,10.48120947265625,-0.4004197793323546,-1.3430313960134983,-0.3379899919696152
1684125115402179600,10.4911796875,-0.5819171870809048,-1.9470973596036434,-0.251022341004014
1684125115412148500,10.5011484375,-0.4604781613886356,-2.2591157288402317,-0.32872532001808286
1684125115422118400,10.511118408203124,-0.2491185532093048,-2.1454981174886227,-0.5875424065515399
1684125115432087300,10.52108740234375,-0.14541505416128783,-1.4208102167427539,-1.1046282980859279
1684125115442057500,10.531057373046876,-0.015814860779978335,-0.3260246827572584,-1.7095865343406795
1684125115452026400,10.5410263671875,0.733422995865345,0.822689425292611,-2.072577842706442
1684125115461996300,10.550996337890625,1.596939521586895,1.7587649912685155,-2.2035352959156036
1684125115471966200,10.56096630859375,1.9432325008690357,1.9767939942091701,-1.989795514601469
1684125115481935400,10.570935302734375,1.533702436429262,1.1876204695492982,-1.79290939906314
1684125115491905500,10.580905517578126,0.8838649017453193,0.06134849493205547,-1.522599297004193
1684125115501874400,10.59087451171875,0.3020259309997782,-0.5817056632220745,-1.1665627762123942
1684125115511844400,10.60084423828125,-0.07824402708820999,-0.6240829157024621,-0.8884004993483424
1684125115521814300,10.610814208984374,-0.4644412563333288,-0.36330607340335846,-0.5801477662555873
1684125115531783400,10.620783447265625,-0.5807961471617221,-0.15381459718346596,-0.3293022431232035
1684125115541753300,10.63075341796875,-0.4602642263770103,-0.12831775235533713,-0.284992561275512
1684125115551722200,10.64072216796875,-0.576236949487403,-0.31026597261130806,-0.4199512129500508
1684125115561692400,10.6506923828125,-0.7294365565776825,-0.6062228493630886,-0.6222032394357025
1684125115571662300,10.660662353515624,-0.7327858670055866,-0.7818705081701278,-0.6672124478548764
1684125115581631500,10.670631591796875,-0.5324911851327866,-0.9230079946100711,-0.605840718177706
1684125115591601400,10.680601318359376,-0.30293913685455914,-1.0465186389446257,-0.34440511970892546
1684125115601570300,10.6905703125,0.11285707530789077,-0.914796631103754,0.09282850582301616
1684125115611540200,10.700540283203125,0.4940295717261731,-0.43960313114225863,0.4695706916436553
1684125115621510100,10.71051025390625,0.7172972059726714,0.41033261299431323,0.7269472239799797
1684125115631479300,10.720479248046875,0.8348036414563655,1.2029074705302714,0.8094593568414449
1684125115641449500,10.730449462890626,1.0121792930997908,1.1158008494853973,0.68408408767879
1684125115651418400,10.74041845703125,1.42091075450778,-0.024555764585733414,0.4327319301985204
1684125115661388300,10.75038818359375,0.6988660617470741,-1.7330226472467183,-0.2923898319199681
1684125115671358500,10.7603583984375,-0.8091301248870789,-3.357600117343664,-1.202831774945557
1684125115681327400,10.770327392578125,-1.4963620090723038,-4.60960508852005,-1.936547616277635
1684125115691297300,10.78029736328125,-0.17422975483313202,-4.787217909920216,-2.0703195423856378
1684125115701266200,10.79026611328125,1.9177857787929473,-4.157530598339438,-1.6403493319854139
1684125115711236400,10.800236328125,2.971344545507431,-3.8140269575148817,-0.8203554293870925
1684125115721206500,10.81020654296875,3.1800095077753063,-4.201011428147554,-0.01552373234629631
1684125115731175400,10.820175537109375,3.0468720801785585,-5.0776750202119345,0.9700538234233855
1684125115741145300,10.830145263671875,3.8012639220535753,-6.148093590182065,2.18182352258414
1684125115751114500,10.840114501953124,3.605424246828258,-6.876062412294745,3.4340491507738826
1684125115761084400,10.85008447265625,1.5802125509306788,-7.902115186315775,4.286094434410334
1684125115771054300,10.860054443359376,-0.5947324641861021,-8.787562973338366,4.6409933294743295
1684125115781023200,10.870023193359375,-3.681078038227558,-8.094358590614796,4.287585549750924
1684125115790993400,10.879993408203125,-6.823004775846004,-6.385284389710426,3.118402361907065
1684125115800962600,10.889962646484374,-5.362335426923632,-5.5730105599701405,1.6947300337314604
1684125115810932500,10.899932373046875,-0.6955982921227812,-2.155311655494571,0.28116671937704085
1684125115820902400,10.90990234375,5.17410476539731,5.450376113948225,-0.5447098115190864
1684125115830871300,10.919871337890624,6.253005917030572,12.246638428819178,-1.7792682655930518
1684125115840841200,10.92984130859375,-0.9816752876341343,16.376809311068058,-2.0259853106185792
1684125115850810400,10.939810302734376,-4.9486745462894435,16.25781702094078,-1.4078662717565893
1684125115860780500,10.949780517578125,-4.457283360242843,13.516710971605777,-3.0736165869802234
1684125115870750500,10.95975048828125,-0.6012061902448534,10.545001684439182,-5.502673871940374
1684125115880719400,10.96971923828125,2.275429296389967,10.244725775444508,-7.510396088376641
1684125115890689300,10.979689208984375,1.6647089894771574,11.409326019412278,-9.301135011532903
1684125115900658400,10.989658447265626,0.9220505477547645,13.176575345909594,-10.8202413518548
1684125115910628400,10.99962841796875,2.906419361132383,15.23788009945154,-11.582587659865617
1684125115920598300,11.009598388671876,4.749566516917944,17.02506512951851,-10.100662172424792
1684125115930567200,11.019567138671874,4.220671237385273,16.854104167222975,-7.151543487250804
1684125115940537300,11.029537353515625,3.1836557553231715,13.93545543911457,-4.648548859420418
1684125115950506500,11.039506591796876,3.0597008743524547,9.644014382979273,-3.318868235628307
1684125115960476400,11.049476318359375,0.9998842404764146,5.877948615556955,-2.0487486388295886
1684125115970446300,11.0594462890625,-2.3719440895102917,3.66630366294384,-0.7574713954508304
1684125115980415200,11.069415283203124,-3.43461321439743,3.249207547163963,0.3592652735799551
1684125115990385400,11.079385498046875,-2.213351756531,4.912895961421728,1.6948144971445203
1684125116000354300,11.089354248046876,-0.08705043387822807,8.00943574334979,2.780582319676876
1684125116010324500,11.099324462890625,0.876489404541254,10.558744963109493,2.9299589344128965
1684125116020294400,11.10929443359375,-1.3434101661980151,9.338889864909648,0.09508139931634067
1684125116030263300,11.11926318359375,-2.19440389495492,3.907526494467258,-4.467638750040531
1684125116040233500,11.1292333984375,0.363996978276968,-1.8082395085334777,-6.4386366251915685
1684125116050202400,11.139202392578126,4.1763574638843535,-6.596506050723791,-5.623423234868049
1684125116060172300,11.14917236328125,5.881749176883697,-9.107481740435958,-3.133025053760409
1684125116070142200,11.15914208984375,4.4687867510318755,-9.609345805180073,-0.21803185248486695
1684125116080111400,11.169111328125,2.1841431977033614,-9.587557167220115,1.9601358510054647
1684125116090081500,11.17908154296875,-0.22695114506483077,-9.35125250287652,3.4284897630810733
1684125116100050400,11.189050537109376,-2.46760825715065,-9.491939322939514,4.243151072479784
1684125116110020400,11.199020263671875,-3.7235166655063625,-10.007596935236453,4.787679389952123
1684125116119993000,11.2089931640625,-3.772688984954357,-10.874863753402233,5.068589796480536
1684125116129962200,11.218962158203125,-2.8745032969117164,-12.18876374747753,5.444007163438201
1684125116139932200,11.22893212890625,-1.9347078336298464,-13.349216224116086,5.602672123262286
1684125116149901000,11.238901123046874,-1.2725520846426486,-14.210122275078296,5.115603476589918
1684125116159871000,11.24887109375,-0.8620939455725252,-14.252054706400632,3.298615721194446
1684125116169841200,11.258841064453126,-0.8308487663507461,-13.103524138224124,0.3256802532337606
1684125116179810000,11.26881005859375,-0.8954255756795406,-11.234784276020527,-2.1066849872305986
1684125116189780200,11.2787802734375,-0.6751344730257988,-9.757587570667265,-3.7616473664581775
1684125116199749000,11.2887490234375,-0.8817817387957125,-9.000077012249827,-4.832495560017228
1684125116209719300,11.29871923828125,-1.4669722484588623,-9.030047787621617,-4.927780226820707
1684125116219689200,11.308689208984376,-1.4948773234724997,-9.462992045396566,-3.0178415082663297
1684125116229658000,11.318658203125,-1.2350726872064173,-9.787446117836236,-0.283888399425894
1684125116239628000,11.3286279296875,-1.285868808463961,-10.00430256986618,1.4473225222237407
1684125116249597200,11.33859716796875,-1.4596819453202188,-9.975911172640323,2.223061980292946
1684125116259567000,11.348567138671875,-1.4245254378736019,-9.609787703728676,2.1559777181878683
1684125116269537300,11.358537353515626,-1.1044539644323288,-8.995965485277772,1.614177656635642
1684125116279506200,11.368506103515625,-0.8802186541974544,-8.50423878366649,1.1287807425677776
1684125116289476000,11.37847607421875,-0.8835608042322098,-8.299697623330355,0.9255481806121766
1684125116299445200,11.3884453125,-1.1021204069182275,-8.179231168997287,1.0073281998068093
1684125116309415200,11.398415283203125,-1.3194316169783473,-8.074212459164857,1.2695257225587964
1684125116319385000,11.408385009765626,-1.6218942223623394,-8.02346193061471,1.577180489758402
1684125116329354000,11.41835400390625,-2.0086114203609524,-8.088626768964529,1.8591840983510017
1684125116339324200,11.42832421875,-2.593005738145113,-8.216516651296615,2.1212898511663076
1684125116349293300,11.438293212890626,-3.2015351108849046,-8.380873100760578,2.361150892817229
1684125116359263200,11.44826318359375,-3.650044309799373,-8.376793137970566,2.625413385275006
1684125116369233200,11.458233154296876,-3.7396772344514724,-7.741805381894111,3.0299580625176428
1684125116379202000,11.4682021484375,-1.4261360879406333,-6.008707331323623,3.355430372089147
1684125116389172000,11.478171875,5.783491047227383,-2.3206074316352603,2.6879689179092643
1684125116399141000,11.48814111328125,10.831549512332677,3.2493466633737085,1.077902788245678
1684125116409111000,11.498111083984375,14.709452437430619,10.61111812442541,0.31773265523016453
1684125116419081200,11.508081298828126,9.449532844364642,17.325020720517635,1.6318743491068481
1684125116429050000,11.518050048828124,-13.533466876095533,16.118478692877293,2.2219620562270284
1684125116439020000,11.52802001953125,-12.392635630249977,15.310769979095458,1.682834136493504
1684125116448989200,11.5379892578125,1.5740885150924324,13.321567169690132,-1.9774825609952211
1684125116458959000,11.547958984375,7.4843147216588255,8.6308748665452,-5.736897638356686
1684125116468929000,11.557928955078125,2.481836396728456,4.291014939677715,-6.44393239351213
1684125116478898200,11.567898193359374,-1.2344953257098794,2.294626602682471,-5.365610503071546
1684125116488868400,11.577868408203125,-0.5828901968315243,1.6357658035874365,-4.972696642389893
1684125116498837200,11.587837158203126,2.9309342091858386,1.4712328285127878,-5.722720644444227
1684125116508807200,11.59780712890625,4.186093552739918,3.514113452091813,-7.2218071100443595
1684125116518777000,11.607777099609375,1.265372986793518,7.261527126014232,-8.049021319285036
1684125116528746200,11.617746337890624,-0.4056999847576022,10.396549491071701,-9.092885059806704
1684125116538716200,11.627716064453125,1.2104790748283267,11.857045236992835,-10.978174490272998
1684125116548685000,11.63768505859375,2.7627158235967157,10.934954941749572,-12.339344769567251
1684125116558655000,11.647655029296875,2.5177625733733175,8.194698202720284,-9.851499195551872
1684125116568625200,11.657625244140625,2.896840800926089,6.085361531937122,-4.1280157500416035
1684125116578594300,11.66759423828125,3.7592598867997524,4.009937067627907,-0.7181804185479879
1684125116588564200,11.677564208984375,3.361705506835878,2.17952079859972,0.8607564133584499
1684125116598534100,11.6875341796875,2.657741537427902,1.0675251866161823,1.7514836020886897
1684125116608503000,11.6975029296875,1.7487419021651147,1.0798428163975478,1.6811206105738876
1684125116618473000,11.707472900390625,1.7739967549309132,2.125095380929112,0.13038286819159983
1684125116628442000,11.717442138671874,2.1089032478019596,3.766837920838594,-2.175740111017227
1684125116638412300,11.727412353515625,1.24786626393646,5.609485894930362,-4.388272952380776
1684125116648381200,11.737381103515625,0.4617243620574474,7.058912549826502,-6.9166732396245
1684125116658351000,11.74735107421875,-0.027753683844208715,7.840235945507883,-9.19886413910389
1684125116668321000,11.757321044921875,-0.026404022800922394,7.87620040833652,-10.621665237402915
1684125116678290200,11.767290283203126,0.8451648764729499,7.145102640548348,-10.786963351631163
1684125116688260000,11.777260009765625,1.5909259603857993,5.942754557466507,-9.207559486734867
1684125116698230000,11.78722998046875,2.007223619264364,4.833701428675651,-6.64238634288907
1684125116708199000,11.797198974609374,2.8865844875887037,4.09452673741579,-4.8634658678203815
1684125116718169000,11.807169189453125,3.141801942194998,4.041657317015528,-3.8192648581683635
1684125116728138200,11.81713818359375,3.4186557668089863,4.628262442716956,-2.9699674119353294
1684125116738108200,11.827108154296875,3.132993489578366,5.478679248368739,-2.326143146191537
1684125116748078000,11.837078125,2.4027403559207916,6.3909659424781795,-1.8467501487135887
1684125116758047000,11.847046875,1.3776289544031024,6.957092928296327,-1.5583675066083669
1684125116768017200,11.85701708984375,0.30029782856553794,6.998351990401744,-1.2935250223055481
1684125116777986000,11.866986083984376,-0.08500131932869553,6.770453335353731,-1.0955693778395652
1684125116787956200,11.876956298828125,0.41505248112306,6.210044727182388,-1.0662702181190251
1684125116797926100,11.886926025390625,0.637009617292881,5.335343375101685,-1.2825409792155027
1684125116807895300,11.896895263671874,-0.08701879663094877,3.755007197791338,-1.910443160945177
1684125116817865200,11.906865234375,-1.1307738160811365,1.456957634922862,-2.805595764902234
1684125116827834000,11.916834228515626,-1.10451256275177,-1.3705039248287676,-3.370707143937051
1684125116837804000,11.926803955078125,-0.24372224712371826,-3.9042484957098957,-3.2926611967042088
1684125116847774000,11.93677392578125,0.38773879613131285,-6.111858493718505,-2.8264398154884574
1684125116857743000,11.9467431640625,1.1182860904298721,-8.081153656604885,-1.9727702916510401
1684125116867713300,11.95671337890625,2.0609337282724676,-9.808245744758844,-0.44124797573983665
1684125116877682200,11.96668212890625,2.1444458319567143,-11.171466526842117,1.6738019581235943
1684125116887652000,11.976652099609375,1.542409328367561,-12.040026307427883,3.7151267305627464
1684125116897622000,11.9866220703125,1.052624262343347,-12.563393178927898,5.418386399969458
1684125116907591200,11.996591064453124,0.6414286027789116,-12.364326066088676,6.492350095200538
1684125116917561000,12.00656103515625,-0.7024106024861335,-11.643907513225077,6.3370660099864
1684125116927530000,12.016530029296876,-2.926869443964958,-10.957554896092415,5.128576939931512
1684125116937500200,12.026500244140625,-4.809252339334786,-10.529212579154967,3.3883851317077873
1684125116947470000,12.036469970703125,-5.745125368475914,-10.023563735175133,1.8214561329811811
1684125116957439200,12.046439208984374,-5.495778851729631,-9.631050271987915,0.7778000438608229
1684125116967409200,12.0564091796875,-4.07895507427454,-9.34491102489531,0.42194428646340965
1684125116977378000,12.0663779296875,-2.233460478579998,-9.136803111988305,0.5498296387508511
1684125116987348000,12.076347900390624,-1.1114194195307792,-9.252038679930568,0.7301309685826302
1684125116997318100,12.086318115234375,-0.8600655084848403,-9.708099024876951,0.5766190076075494
1684125117007287000,12.096287109375,-1.0196354543246329,-10.257447309851646,0.21338044648244975
1684125117017257200,12.10625732421875,-1.3404443021297454,-10.68008936932087,-0.39487726970911025
1684125117027226000,12.11622607421875,-1.5221676275886595,-10.888080962371825,-0.9384745899416506
1684125117037196000,12.126196044921874,-1.1872715099811553,-10.785466975593566,-1.2317647317022085
1684125117047166200,12.136166259765625,-0.627547523073107,-10.40151091287136,-1.256357613427937
1684125117057135000,12.146135009765626,-0.41378889092803,-9.825368728995322,-0.9418816219061612
1684125117067105000,12.15610498046875,-0.6859516351163387,-9.090758569172024,-0.05128258960023522
1684125117077074200,12.16607421875,-1.1573299607038496,-8.473904435679316,1.1192736401624976
1684125117087044400,12.17604443359375,-1.457006150239706,-8.1975763885051,2.012857825759053
1684125117097014300,12.18601416015625,-1.611123383631557,-8.165145945021509,2.6707176311179994
1684125117106983200,12.195983154296876,-1.8379170000471174,-8.179217724993824,3.0686385063067076
1684125117116953000,12.205953125,-2.108899156148732,-8.165366894295811,3.1855542824208736
1684125117126922800,12.2159228515625,-2.1529778057195244,-8.173124668815731,3.124109049116075
1684125117136892700,12.225892578125,-2.0126513434015214,-8.372691547870636,2.9286335310280323
1684125117146863000,12.235863037109375,-2.064558202379942,-8.749801690220833,2.6668101022854445
1684125117156832000,12.24583203125,-2.515507487922907,-8.835043101915717,2.280563006016612
1684125117166802000,12.255802001953125,-0.38902269846200943,-7.59835026616156,1.6095517504006622
1684125117176771800,12.265771728515626,6.771264067214727,-3.685862349894643,0.6120869190908969
1684125117186741000,12.275740966796874,12.812709300535916,2.57546131362617,-0.7847858110949396
1684125117196711000,12.2857109375,3.477333581227064,6.4899377733618016,-2.328678217627108
1684125117206679800,12.2956796875,-4.736422957706451,8.183502270445228,-2.393575783342868
1684125117216649700,12.305649658203125,1.436758458111435,12.049621818768978,-1.816362901495397
1684125117226620000,12.315619873046876,-0.4024339686989784,14.714513227951526,-2.0650386793732642
1684125117236589000,12.325589111328124,-4.620374319815635,16.704166119211912,-4.139630492250621
1684125117246559000,12.33555908203125,-4.941349317967892,21.051958008122444,-8.491156599253415
1684125117256528000,12.34552783203125,11.847345680755376,23.824429502058027,-16.939091311895847
1684125117266497800,12.355497802734375,9.181079476088286,15.232764363873004,-17.949159165799617
1684125117276467700,12.3654677734375,-3.430133438634872,9.398066861021519,-9.544005610263348
1684125117286436900,12.375436767578124,-1.369204094276577,8.51108528856039,-0.33523440965116025
1684125117296407000,12.385406982421875,0.3399997243568301,7.071758002874255,4.053741430301964
1684125117306376000,12.3953759765625,1.158101529598236,6.275938464328647,4.64085158291608
1684125117316345900,12.405345947265625,4.288038554215431,7.654725064334273,1.9891095781639216
1684125117326315800,12.415315673828125,4.906300216418504,12.866839534652232,-2.8905475460007786
1684125117336285000,12.425284912109374,0.2512707628071308,14.9267601403594,-5.837215623152256
1684125117346254800,12.4352548828125,-2.0563598444856703,11.755246073728799,-7.636613069060444
1684125117356223700,12.4452236328125,-0.5671922769621014,7.397882638874649,-7.454375510469078
1684125117366193700,12.455193603515625,-0.2737105581521988,3.4604350533962247,-6.340812210777401
1684125117376163800,12.465163818359375,0.2715431509852409,0.2957394346088171,-5.6493409354567525
1684125117386133000,12.475133056640624,1.0632242745518683,-2.0068390038609505,-4.752380989816785
1684125117396103000,12.48510302734375,1.1484382137179374,-2.9700194343835116,-3.1287907771915195
1684125117406071800,12.49507177734375,0.9565409925080836,-2.3233137679845095,-0.7633800349727272
1684125117416041700,12.505041748046875,0.825956172003597,-1.3347072197824716,1.7878081304013729
1684125117426012000,12.515011962890625,0.6064062431059777,-0.9656184713244438,4.065913806393742
1684125117435980800,12.524980712890626,0.41759281325563785,-1.0762865852206944,5.976116144320368
1684125117445951000,12.534950927734375,0.3981036844097078,-1.6892337744027375,7.19924047344923
1684125117455919900,12.544919921875,0.6343779536150396,-2.6458120301812884,7.935752082979679
1684125117465890000,12.55489013671875,0.8374258066534995,-3.8429461780071255,8.111055458393693
1684125117475860000,12.56485986328125,0.7275473087649792,-5.280175030109286,7.423653624469042
1684125117485828900,12.574828857421876,0.1371428638458252,-6.488383529657125,5.893448382505774
