time,seconds_elapsed,z,y,x
1684131457721820200,0.027820068359375,0.06935849064737558,0.25909093503877517,0.19384616332054136
1684131457731791000,0.037791015625,0.10870762747824192,0.21559556524865328,0.169018011534214
1684131457741762000,0.047761962890625,0.12128361593484878,0.04529233620949089,0.06436404336094856
1684131457751733000,0.05773291015625,0.08549275610744952,-0.06282346285544335,0.035431378865242
1684131457761704000,0.067703857421875,-0.02083440597504377,-0.1032804878629744,0.01689092904627323
1684131457771675100,0.077675048828125,-0.12753449302315711,-0.11428060530498624,-0.05597264711260795
1684131457781646000,0.08764599609375,-0.0907528685927391,-0.07913103905580937,-0.08207096496522426
1684131457791617300,0.0976171875,-0.027548516660928724,-0.004297112672030925,-0.04246668432950973
1684131457801588000,0.107587890625,0.04416676624566317,0.0748518273666501,0.029340076252818106
1684131457811559000,0.117558837890625,0.08736673328578472,0.07403568867817521,0.0990396354228258
1684131457821530000,0.127530029296875,0.10663140572607517,0.24803010038547216,0.060818918099999425
1684131457831501000,0.1375009765625,0.3127762018665671,0.060765726608037945,0.0016384148567914962
1684131457841472300,0.14747216796875,0.34312487064003944,-0.11507307085692882,-0.07258300565183162
1684131457851443000,0.15744287109375,0.21274258697032927,0.0306409297183156,-0.12413432919085025
1684131457861414000,0.167413818359375,0.25159780280441046,-0.052728915951028466,-0.015181787040829658
1684131457871385000,0.177385009765625,0.38009091172665355,-0.22225604605115948,-0.10102759436964988
1684131457881356000,0.18735595703125,0.08040887697190045,-0.4101487808600068,-0.02988368161022663
1684131457891327200,0.1973271484375,-0.18385609970390795,-0.46809404321983455,-0.006045125383138656
1684131457901298000,0.2072978515625,-0.6151715872332454,-0.3547779720980674,0.015131518158316612
1684131457911268900,0.217268798828125,-1.1015797241702676,0.15231844034157693,0.01716097815930843
1684131457921240000,0.227239990234375,-0.5006295545130968,0.5094269012138247,0.07185410685539245
1684131457931211000,0.2372109375,-0.2884647674307227,0.36641426855176684,0.20795184556245802
1684131457941182200,0.24718212890625,-1.1591487005636096,0.2663109494201839,0.5628209300100803
1684131457951153200,0.257153076171875,-1.4867556840762495,0.6231847247537226,0.806339178994298
1684131457961123800,0.267123779296875,-1.4959794394955037,0.9351640771541744,0.7882137397170066
1684131457971095000,0.277094970703125,-1.5885793972596525,0.9033210051044821,0.7477244929403066
1684131457981066000,0.28706591796875,-1.0031007913701235,-0.0009875497326254845,0.6043202306121588
1684131457991037200,0.297037109375,-0.16719605680406094,-0.5968175998970866,-0.2368535303980112
1684131458001008000,0.307008056640625,0.17379311698153613,-0.8761577614340931,-0.8128542599767447
1684131458010978800,0.316978759765625,0.09144289668351412,-0.7685931665111333,-0.5301572622925043
1684131458020950000,0.326949951171875,0.09257131619155406,-0.5478525665242224,0.045049102038145064
1684131458030921000,0.3369208984375,0.52947512524724,-0.08856098457165062,1.212787059509754
1684131458040892200,0.34689208984375,1.0401502729564904,0.6863472103051841,1.2514081743270158
1684131458050863000,0.356863037109375,0.7467128316797316,1.0176609393812714,0.5395347469687461
1684131458060834000,0.366833984375,0.3061521075516939,0.06394165323041379,-0.04455693460702896
1684131458070805000,0.376804931640625,0.6497416730940342,-0.9340968863140791,-0.34714053602218625
1684131458080776000,0.38677587890625,0.9816695885457097,-0.9280482537996023,-0.3275263194918632
1684131458090747100,0.3967470703125,0.7393769358336925,-1.0875154699172824,-0.24611761782765387
1684131458100718000,0.406718017578125,0.4294410719595849,-1.497473623576015,0.2171159797489643
1684131458110689300,0.416689208984375,0.13690540182814,-2.0669689167834817,0.8261626543611288
1684131458120660000,0.426659912109375,0.1340145757574588,-1.928244482834637,1.3119050208657979
1684131458130631000,0.436630859375,0.4073118038684129,-1.8648802641659974,2.0670728155493734
1684131458140602000,0.44660205078125,0.0021300160323269664,-2.0086489758923647,3.694683369731903
1684131458150573000,0.456572998046875,0.9860767374634742,-0.8437458034552633,3.698070089560747
1684131458160544300,0.466544189453125,1.1998632805287837,0.7205393296990543,1.9540631069630383
1684131458170515000,0.476514892578125,-0.07363576610777527,1.079058314956352,-0.3929799116551876
1684131458180486000,0.48648583984375,-2.1853613413214683,0.7942056736081838,-3.004867460402846
1684131458190457000,0.49645703125,-2.3339292700231073,0.613285773486644,-5.537662183213234
1684131458200428000,0.506427978515625,-1.2641349694311619,0.38328824646323917,-6.080437519538402
1684131458210399200,0.516399169921875,-0.6570505348026752,-0.48670302823036904,-4.555093746131658
1684131458220370200,0.5263701171875,0.4205950638115406,-1.038424179816246,-1.7305442744344472
1684131458230340900,0.5363408203125,1.6117255873084066,-1.6283998048640786,0.5474187782168388
1684131458240312000,0.54631201171875,2.061989813196659,-1.7438715196497738,2.017708772921562
1684131458250283000,0.556282958984375,1.651753646314144,-1.4681526904150843,2.6751655504375695
1684131458260254200,0.566254150390625,0.8009235836863517,-1.3633755342535674,2.5097937864512203
1684131458270225200,0.57622509765625,0.11588131849989294,-1.0365452342018484,1.7691057680189608
1684131458280195800,0.58619580078125,-0.31366146026849745,-0.45679918061494823,1.2821680542498826
1684131458290167000,0.5961669921875,-0.4673276619572192,0.21223025353401898,0.9926122767120599
1684131458300138000,0.606137939453125,-0.9682383714992553,0.4981406603068113,0.7354583010852337
1684131458310109200,0.616109130859375,-1.824606121444702,0.3752048932507634,0.3059948711633682
1684131458320080100,0.626080078125,-2.354503417626768,-0.3859440216690302,-0.03288753960132599
1684131458330051000,0.636051025390625,-2.355885081243515,-0.8964895516492426,-0.32230069379806514
1684131458340022000,0.64602197265625,-2.2102910537861287,-0.9830525673367082,-0.35359482672810555
1684131458349993000,0.655992919921875,-2.2056275920197366,-0.39445962881892915,-0.6749719759404659
1684131458359964200,0.665964111328125,-2.092946969257295,-0.15986863652542233,-1.037847841233015
1684131458369935000,0.67593505859375,-1.6543790263816713,0.6477664274983108,-1.448399065414071
1684131458379906000,0.685906005859375,-1.1203142352566122,1.4252986142031847,-1.5739847624570131
1684131458389877000,0.695876953125,-1.1879825808599591,1.616504199887067,-1.5814900235205889
1684131458399848000,0.705847900390625,-1.2139885442540048,1.7152639954552054,-1.8393886800348758
1684131458409819100,0.715819091796875,-0.29845249295979737,1.6630786117963492,-1.8433979156762361
1684131458419790000,0.7257900390625,0.3265799785524606,0.31773908497095105,-1.4057424114704131
1684131458429761000,0.735760986328125,0.5766130162581801,-0.577786443951726,0.7020575512647629
1684131458439732000,0.74573193359375,1.359513159736991,-0.06510112546384335,2.2610855676084753
1684131458449703000,0.755702880859375,0.492076245701313,-0.32704701154232024,1.2810580471813677
1684131458459674000,0.765674072265625,1.7588398100703955,-0.4499703575082123,1.1087667130649088
1684131458469645000,0.77564501953125,2.950392942893505,0.6459720914274454,0.8690671455860137
1684131458479616300,0.7856162109375,1.953207366916537,-0.595164571993053,0.6214841313809156
1684131458489587000,0.7955869140625,2.332824231390655,-0.8753606927722692,-0.3987298534840345
1684131458499558000,0.805557861328125,2.6590119957551357,1.9424135857015847,-0.740416800275445
1684131458509529000,0.815529052734375,1.3712740324184298,2.508058633221686,-0.09195756820738316
1684131458519500000,0.8255,0.9417696859642862,3.436452412523329,0.29764556049108504
1684131458529471200,0.83547119140625,0.2571715112835169,4.170806844019889,0.41386487877368927
1684131458539442200,0.845442138671875,0.1269727674871683,2.7687498430639503,-0.20118015947043894
1684131458549412900,0.855412841796875,0.4747305586248636,2.6781799298226834,-0.13829963266551493
1684131458559384000,0.865384033203125,-0.8575561560124159,2.511047585904598,-0.13844810122549533
1684131458569355000,0.87535498046875,-2.0666405616119503,0.9412238886497915,-0.579423689764738
1684131458579326200,0.885326171875,-0.6843097131282091,-0.2741840208828449,0.14113105669915676
1684131458589297200,0.895297119140625,-0.02858253588378429,0.5923644198805094,0.8512865742236375
1684131458599267800,0.905267822265625,-0.1636184905782342,0.5497882838271558,0.7175187397688627
1684131458609239000,0.915239013671875,0.14974574030935764,0.05117708339914679,0.6119260294407606
1684131458619210000,0.9252099609375,-0.18943886827230452,0.30342180580496786,-0.12867138809859752
1684131458629182200,0.93518212890625,-0.6984381917238235,-0.09617708559855818,-0.6619628567636012
1684131458639152000,0.945152099609375,-0.10957622700631618,-0.6374596991479397,-1.0682482401937246
1684131458649124000,0.9551240234375,-0.9135463387817144,-0.31302623110488054,-0.5077063610315322
1684131458659095000,0.965094970703125,-0.792461460289359,0.45516354223713273,-0.16070669478476046
1684131458669066000,0.97506591796875,-0.7873007165253162,0.8621263865374028,0.15376199021339415
1684131458679037200,0.985037109375,-1.3799351855188606,-0.5154555138535797,0.325367095631361
1684131458689007900,0.9950078125,-0.741515116906166,-0.8879207530073822,1.207872983983159
1684131458698979000,1.00497900390625,-1.4368185177356003,-0.6989793128632008,0.8757026380777359
1684131458708950000,1.014949951171875,-1.29205758010149,-1.6005365231655537,0.8939110794633627
1684131458718921700,1.024921630859375,-1.0601023431390524,-2.22153009455055,0.6238619664281606
1684131458728892700,1.034892578125,-1.198922784808278,-3.121424924598634,0.5786679029613733
1684131458738863400,1.04486328125,-0.6355395447403193,-4.140634993118048,0.4985381351917982
1684131458748834600,1.05483447265625,-0.2698059519290924,-5.188208109551668,0.1953530607521534
1684131458758805500,1.064805419921875,1.1641478240251542,-4.807390929377079,0.1348807641327381
1684131458768776700,1.074776611328125,1.988586723333597,-4.718768935333192,-0.4061661409646272
1684131458778747600,1.08474755859375,3.092815792968869,-3.5774908225029707,-1.6131752015948295
1684131458788718300,1.09471826171875,2.2654519461244345,-3.532578790847957,-1.9729905102729797
1684131458798689500,1.104689453125,1.9828250910669565,-3.4656393440410493,0.3616828561156988
1684131458808660500,1.114660400390625,1.024227896681428,-4.8670963332772255,1.7962398586601018
1684131458818631700,1.124631591796875,3.480360820093751,-6.138715520983934,3.994512704002857
1684131458828602600,1.1346025390625,2.5420021116167306,3.239390209765732,4.414230400457978
1684131458838573600,1.144573486328125,-2.490243867328763,1.6083726236186922,1.5451234096318482
1684131458848544500,1.15454443359375,0.14071896876692772,4.847112406651675,-2.1732827809929844
1684131458858515500,1.164515380859375,-3.9363662199825047,5.534933050510287,-3.1926024473667143
1684131458868486700,1.174486572265625,-5.694512787091732,5.566663236770034,-2.3422020083278414
1684131458878457600,1.18445751953125,-3.4309798263311384,3.698696112504601,-1.292512338131666
1684131458888428500,1.194428466796875,-2.4574393298357724,3.597738660761714,-1.3703098635613917
1684131458898399500,1.2043994140625,-0.6895949600547552,2.8565669504657385,-1.8399936601907014
1684131458908370400,1.214370361328125,0.9760358204424381,1.9024995084643364,-1.8683587539315223
1684131458918341600,1.224341552734375,0.9617208793640136,1.918110334572196,-1.3709908315628767
1684131458928312600,1.2343125,1.2891133433431385,2.214165411001444,-0.3628004619687795
1684131458938283500,1.244283447265625,2.2556226260274648,2.8367139567434787,0.8562374746292829
1684131458948254500,1.25425439453125,3.059349576696753,3.021604367931187,1.5949094770640133
1684131458958225400,1.264225341796875,5.235914448100329,1.5119516462616622,-0.3868704888641834
1684131458968196600,1.274196533203125,3.721587158748507,1.3118524138957262,-3.116709878775477
1684131458978167600,1.28416748046875,2.570951727247238,1.7772333987645803,-3.7430385275781153
1684131458988138500,1.294138427734375,1.644993066138029,1.7331468581482767,-3.413388055539131
1684131458998109700,1.304109619140625,0.24948329486846924,1.6986023451201617,-4.017263464993238
1684131459008080400,1.314080322265625,-2.839762238398194,1.1601740980885922,-5.486041886091232
1684131459018051600,1.324051513671875,-3.634253158688545,-0.21028372257612643,-4.547475672343373
1684131459028022500,1.3340224609375,-2.4250071327865124,-1.7671962811358273,-2.7723411455541846
1684131459037993500,1.343993408203125,0.2916168017208576,-2.5603292109459637,-0.5023907189667225
1684131459047964700,1.353964599609375,6.300801687428355,-2.485114395485818,4.667313181123137
1684131459057935400,1.363935302734375,0.2607996386528015,-1.0994435889244079,4.348351276358962
1684131459067906600,1.373906494140625,-3.184617293831706,-0.3283798675812781,3.2267782732129096
1684131459077877500,1.38387744140625,-2.49862298861742,-0.8259552952207625,2.2347329827338456
1684131459087848700,1.3938486328125,-1.64014211897552,-2.5229995972439645,0.3066325845450163
1684131459097819600,1.403819580078125,-1.179153669977188,-3.1885981801614163,-1.023543421548605
1684131459107790600,1.41379052734375,-0.3538023319989443,-2.4393743885740635,-1.4387766660660504
1684131459117761500,1.423761474609375,1.6347265236675739,-1.3958202985234558,-0.6288543678879738
1684131459127732500,1.433732421875,2.7389374731242655,-0.7638058591693639,-0.10404431184232234
1684131459137703700,1.44370361328125,2.842887676942348,-0.8063929550081491,0.6193886204063892
1684131459147674600,1.453674560546875,1.2864426628291605,-1.1504805332005024,1.9400749136209487
1684131459157645600,1.4636455078125,-0.26127602399289607,-0.9078814448878169,3.386817443999648
1684131459167616500,1.473616455078125,-0.2867190928071737,-0.41956075232774015,4.357687844502926
1684131459177587500,1.48358740234375,0.19709902763664722,-0.029155367335677144,4.960245157095789
1684131459187558700,1.49355859375,0.8631167127490044,0.8965317833557724,3.8631840793937444
1684131459197529600,1.503529541015625,0.8566144912481307,0.6576990618392825,0.8365127834618091
1684131459207500500,1.51350048828125,-0.39685938343703747,-2.095736892236769,-0.9043471332818269
1684131459217471500,1.523471435546875,-4.183261836445332,-6.6082835822790855,-1.1802058093786238
1684131459227442400,1.5334423828125,-2.637999895125627,-8.015562117275595,0.6517395689129829
1684131459237413600,1.54341357421875,2.2083944263845683,-6.5558338485956185,1.0493331118434668
1684131459247384600,1.553384521484375,-0.40225218239128585,-5.971385608667135,1.298251174044609
1684131459257355500,1.56335546875,0.4345633834093809,-5.85552226421535,0.9468062188267707
1684131459267326700,1.57332666015625,1.3606816189944744,-5.9716778696119786,0.3007002718865871
1684131459277297400,1.58329736328125,1.5665835462898015,-4.8141918415635825,-1.3675403988480568
1684131459287268600,1.5932685546875,1.3198393209964037,-3.049208414171636,-2.6795541407853363
1684131459297240600,1.603240478515625,1.914141430941224,-2.49531196437329,-2.69644390078783
1684131459307211500,1.61321142578125,1.3636919067263602,-1.1796499290615319,-2.123508988520503
1684131459317182500,1.623182373046875,0.6254150410890579,1.6491121918946503,-1.222550913155079
1684131459327153400,1.6331533203125,0.3787345286816358,3.157883308424055,-0.14938625934720037
1684131459337124600,1.64312451171875,-1.447035668106377,4.60975297255814,0.4157277500361204
1684131459347095600,1.653095458984375,-4.0759325115829705,5.5659366760611535,0.6781453452795744
1684131459357066800,1.663066650390625,-5.0690539068609475,5.428602673557401,1.506536781606078
1684131459367037400,1.673037353515625,-0.11944938624501228,3.6541426850289103,2.014309193611145
1684131459377008400,1.68300830078125,5.476915161305666,1.3822911009952425,1.113611815008521
1684131459386979600,1.6929794921875,1.325426473478973,-5.304699815034866,3.4411756416529413
1684131459396950500,1.702950439453125,-1.5317679612353443,-4.3379818580359215,2.082543356403708
1684131459406921700,1.712921630859375,1.3637550350904464,0.019681436547636984,-0.7791092267632485
1684131459416892400,1.722892333984375,-0.8083779913455248,4.478797565175593,-1.5354542485326528
1684131459426863400,1.73286328125,-2.1040765582978724,6.607400369703769,-1.2788187438219785
1684131459436834600,1.74283447265625,-2.793563966324925,7.795346417945623,-0.877917976039648
1684131459446805500,1.752805419921875,-1.5767425367325543,8.766905969756841,-0.3930272579282522
1684131459456776700,1.762776611328125,-0.5327133765161037,6.815635708382725,0.7924789959460496
1684131459466747600,1.77274755859375,-0.140707278329134,2.657458628833294,0.952557329699397
1684131459476718600,1.782718505859375,1.271982760322094,-1.4369845219522714,0.9383727370023727
1684131459486689500,1.792689453125,2.163235434231162,-3.1389772401630878,1.4482880062550305
1684131459496660500,1.802660400390625,2.2926713769614695,-1.3912971220105885,0.7017576915353536
1684131459506631700,1.812631591796875,1.7635305982351301,-1.8984474565945564,-0.8968634995281696
1684131459516602600,1.8226025390625,1.3288631699293851,-1.9897708185516296,-1.5750672969967126
1684131459526573600,1.832573486328125,0.9376181192427873,-0.6046332420840859,-1.728090451541543
1684131459536544500,1.84254443359375,0.7348252638787031,0.5165532459624111,-1.8228297594219445
1684131459546515500,1.852515380859375,0.07889467301666736,2.5099434240549803,-0.8191881391733884
1684131459556486700,1.862486572265625,0.22966274211108684,4.351135938641429,0.005598550659418106
1684131459566457600,1.87245751953125,-0.26251871753036976,3.6494723551303148,0.5548650025695562
1684131459576428500,1.882428466796875,0.10078969396054745,1.880972151789069,0.6051321315169335
1684131459586399500,1.8923994140625,0.37281536776572466,0.6817097597628832,0.4946054719179868
1684131459596370400,1.902370361328125,0.4465504660621285,0.20489728029742835,0.3531570198327303
1684131459606341600,1.912341552734375,0.6139017134279012,0.2587204942911863,0.17135902170240877
1684131459616312600,1.9223125,0.6745376761764288,0.5160281991750002,0.1109866783261299
1684131459626283500,1.932283447265625,0.6020645606398582,0.9273146057628094,-0.02515022334754467
1684131459636254500,1.94225439453125,0.3434691540330648,1.2422881715431808,0.36873861984610556
1684131459646225400,1.952225341796875,-0.5485246936321259,1.4350294423617422,-1.034830539238453
1684131459656196600,1.962196533203125,0.036298809349536894,1.488026434664428,-0.8485410749077796
1684131459666167600,1.97216748046875,0.28511691830754277,1.4137947850227355,-0.3375964626073837
1684131459676138800,1.982138671875,-0.0475485176384449,1.3375576407775283,-0.23267595245242118
1684131459686109400,1.992109375,-0.5092658654332161,1.3178645137920975,-0.335717809253931
1684131459696080400,2.002080322265625,-0.5300777673155069,1.3709198121532797,-0.24730419726371763
1684131459706051600,2.012051513671875,-0.4096072213292122,1.3602917428940533,0.06683247930109501
1684131459716025300,2.022025390625,0.02063099235743284,0.8745335942983626,0.20759645625352857
1684131459725996300,2.031996337890625,0.7864145813405513,-0.01447714590281248,0.2699099968254566
1684131459735967500,2.041967529296875,0.5112862653449177,-0.7413505739942192,0.26840134582817554
1684131459745938200,2.051938232421875,-1.4989309827774762,-1.541308965910226,0.3627805882245302
1684131459755909000,2.0619091796875,-1.9155156419038772,-2.1906512644231317,0.207970550262928
1684131459765880300,2.07188037109375,-0.6635621086537837,-2.7156004366785287,0.47636780443787574
1684131459775852300,2.081852294921875,0.5561687786445021,-2.678922857144475,1.008449897313118
1684131459785823200,2.0918232421875,1.0287789841145276,-3.025833676064014,0.09867197115421295
1684131459795794200,2.101794189453125,0.9538841943889855,-2.668342718680203,-0.4157920474439859
1684131459805765400,2.111765380859375,0.6572656388580799,-1.2312220031276344,-0.1325894383251667
1684131459815736300,2.121736328125,0.31390520589649673,-0.0734706021413207,-0.10557868180274962
1684131459825707300,2.131707275390625,-0.18832593859434127,0.5494590518727899,0.2026899795114994
1684131459835678500,2.141678466796875,-0.32211423131525513,0.8114316798277199,0.34955519594848156
1684131459845649200,2.151649169921875,0.06126257021427154,0.8921294567435979,0.44882922464907166
1684131459855620400,2.161620361328125,0.3265694571584463,0.6635194385558366,0.14442951372265814
1684131459865591300,2.17159130859375,0.20955752719342707,0.2545768186151981,-0.4707458729028702
1684131459875562200,2.181562255859375,-0.30222704306244846,-0.13410700328126549,-0.7219242812514305
1684131459885533400,2.191533447265625,-0.33690321964621545,-0.27414135078489776,-0.2961743188947439
1684131459895504100,2.201504150390625,0.019953823748230935,-0.38572994052693244,-0.17014964591264722
1684131459905475300,2.211475341796875,0.07470072845816612,-0.40250644941329955,-0.15422726963758468
1684131459915446300,2.2214462890625,-0.014358487959206103,-0.3218399444185197,-0.16080840159356594
1684131459925417200,2.231417236328125,-0.16316577837467192,-0.17168839978724718,-0.32773908545970915
1684131459935388400,2.241388427734375,-0.22266893770098684,0.14132073405236004,-0.06353986749649047
1684131459945359000,2.251359130859375,-0.1262806935697794,0.29493995479419827,-0.13483166429400442
1684131459955330300,2.261330322265625,0.01610533162653446,0.29784473632499575,-0.30505788257420063
1684131459965301200,2.27130126953125,-0.0006494038194417953,0.2807704135358333,-0.11697393604218959
1684131459975272200,2.281272216796875,0.053850540392100806,0.22812238080129027,0.1678898842871189
1684131459985243400,2.291243408203125,0.17641601283103225,0.07283376554250717,0.19442367094755172
1684131459995214300,2.30121435546875,0.009122048610448836,-0.10242679364308714,0.017474281892180442
1684131460005185300,2.311185302734375,-0.3443047280743718,-0.1889803108498454,-0.028870705175399778
1684131460015156200,2.32115625,-0.5086456877082586,-0.22664748594313858,-0.03256663708388805
1684131460025127400,2.33112744140625,-0.44127427922487256,-0.2683952083483338,-0.299268193256855
1684131460035098400,2.341098388671875,-0.34755496204197406,-0.21514497193694113,-0.6171534087002277
1684131460045069300,2.3510693359375,-0.297904795949161,-0.05242708346024155,-0.47038989907205103
1684131460055040300,2.361040283203125,-0.15495266130268573,0.008904168076068163,-0.4339531425565481
1684131460065011200,2.37101123046875,0.034628538049757476,0.05317410243526101,-0.2922621138870716
1684131460074982400,2.380982421875,0.11202362015843391,0.05285495348349213,-0.03863280525505543
1684131460084953300,2.390953369140625,0.11639467484951019,-0.04403028038442135,-0.05869418103098869
1684131460094924300,2.40092431640625,0.0734139035180211,-0.10162775221988558,0.10164777209460735
1684131460104895200,2.410895263671875,0.08229863624125719,-0.1175080429188907,0.3400450248032808
1684131460114866200,2.4208662109375,0.21819529941827057,-0.13415128081440925,0.44586219153702256
1684131460124837400,2.43083740234375,0.35564474499523635,-0.1489374926663935,0.42044834881722926
1684131460134808300,2.440808349609375,0.3189507988482714,-0.11555720111206173,0.33407004204690455
1684131460144779300,2.450779296875,0.17256430583894253,-0.1752010840833187,0.20181728833019733
1684131460154750500,2.46075048828125,0.10527180781066417,-0.1442369137600064,0.12330723071694373
1684131460164721200,2.47072119140625,0.10887275491207837,-0.05174246219694614,0.05872165355980396
1684131460174692400,2.4806923828125,0.10194909312874079,0.09828107214048504,0.08707973303794861
1684131460184664300,2.490664306640625,0.0714642307549715,0.06082637075409293,-0.03309562939405441
1684131460194635300,2.50063525390625,0.18630349285602568,0.10236118106096982,-0.027779987329244613
1684131460204606200,2.510606201171875,0.21498422841727732,0.06605199644789099,-0.022094342908263204
1684131460214577200,2.5205771484375,0.18100977036207913,0.04881283848583698,0.02831248677074909
1684131460224548400,2.53054833984375,0.09602963995188474,0.057698594122380015,0.1033013845205307
1684131460234519300,2.540519287109375,-0.001485270121693611,0.011717325800657272,0.09323182592689991
1684131460244490500,2.550490478515625,0.023435820645093915,0.03184635998532176,0.1065209310889244
1684131460254461200,2.560461181640625,0.03740004858970642,0.06530570812523365,0.12397358567118644
1684131460264432000,2.57043212890625,-0.0077770637422800055,0.1029421958193183,0.11949907060563564
1684131460274403300,2.5804033203125,-0.0284036721855402,0.1994112501017749,0.1270300506323576
1684131460284374300,2.590374267578125,-0.046915188170969485,0.11254925146773456,0.01220540157854557
1684131460294345500,2.600345458984375,0.006861410202085971,0.08615165840759872,-0.021712650114297866
1684131460304316200,2.610316162109375,0.059302083796262735,0.12489829930067062,0.014663316124677658
1684131460314287000,2.620287109375,0.08094283771812916,0.1469337516285479,0.05282265864908695
1684131460324258300,2.63025830078125,0.06971680256575345,0.14190277172401547,0.08630290344655513
1684131460334229200,2.640229248046875,0.059006900241971014,0.12180749367848039,0.10863163963258265
1684131460344200400,2.650200439453125,0.06198796187937259,0.08026464619562029,0.11636954040825366
1684131460354171400,2.66017138671875,0.07515431744456291,0.061694093499332664,0.12437690577507018
1684131460364142000,2.67014208984375,0.08174830888211726,0.0478381482347846,0.10089899955391883
1684131460374113300,2.68011328125,0.12195932323932647,0.04398863319978118,0.06505027205944061
1684131460384084200,2.690084228515625,0.12097644968181848,0.0383639251857996,0.03670505206286907
1684131460394055400,2.700055419921875,0.111771691223979,0.04138736466020346,0.009798924958705902
1684131460404026400,2.7100263671875,0.10002338576316833,0.03390314638465643,0.020364742636680602
1684131460413997300,2.719997314453125,0.09244915111660956,0.02500219317898154,0.04264145637452602
1684131460423968300,2.72996826171875,0.06826251210421323,0.021848697584122417,0.05686170490682125
1684131460433939200,2.739939208984375,0.05388327361792326,0.0028700024783611298,0.05033376444280147
1684131460443910400,2.749910400390625,0.04304653004407882,-0.017020692905783653,0.05068330853283405
1684131460453881300,2.75988134765625,0.05268704957067966,-0.03264379397332668,0.030298107630014417
1684131460463852300,2.769852294921875,0.045231472867727274,-0.05564940650761127,0.02658405554294586
1684131460473823200,2.7798232421875,0.04068213900029659,-0.06827756354287266,0.019800094491243363
1684131460483794200,2.789794189453125,0.051287996427714824,-0.06839724439978599,-0.002466682374477386
1684131460493765400,2.799765380859375,0.0639876112639904,-0.06552271187677979,0.00230009363591671
1684131460503736300,2.809736328125,0.05856909334659576,-0.02920271360874176,0.021692191848158834
1684131460513707500,2.81970751953125,0.0948790086120367,0.008127046223729848,0.043272155493497846
1684131460523679200,2.82967919921875,0.1129044946461916,0.06147095226794481,0.0735907213896513
1684131460533650400,2.839650390625,0.11715747591555117,0.13058292080834508,0.11935060204565524
1684131460543621400,2.849621337890625,0.08693301804363728,0.1886988635599613,0.14159107542634009
1684131460553592300,2.85959228515625,0.03760755386054516,0.21483882859721778,0.14081775296628474
1684131460563563300,2.869563232421875,-0.019569208344817162,0.22621537813618778,0.09238134657740592
1684131460573534200,2.8795341796875,-0.0649745764747262,0.20181392732933162,0.0525718987584114
1684131460583505400,2.88950537109375,-0.0774421361207962,0.15738587979897856,-0.02113689605295658
1684131460593476400,2.899476318359375,-0.06253039819300174,0.0978589012056589,-0.060790861049294466
1684131460603447300,2.909447265625,-0.050881461453437804,0.0596839227207005,-0.054071197405457495
1684131460613418200,2.919418212890625,-0.012289280469715594,0.03659939973130822,-0.02453179918825626
1684131460623389200,2.92938916015625,0.007610182742774486,0.029972967328876256,0.03244622557461262
1684131460633360400,2.9393603515625,0.01756488278508186,0.0327552915237844,0.06048223349153995
1684131460643331300,2.949331298828125,0.012214753928780554,0.04183788490667939,0.07123159104287624
1684131460653302300,2.95930224609375,0.004272270491719246,0.04881780692189932,0.054909986317157745
1684131460663273200,2.969273193359375,0.0013163432955741882,0.046303047621995205,0.015442483803629874
1684131460673244200,2.979244140625,0.014840426257252692,-0.003271569016575813,-0.047326399320364
1684131460683215400,2.98921533203125,0.0219356452152133,-0.07726371081396936,-0.11250234358608723
1684131460693186300,2.999186279296875,0.02853343604505062,-0.134204910697788,-0.12683189771175385
1684131460703157200,3.0091572265625,0.03563479248285294,-0.17711773135960102,-0.10063304209411143
1684131460713128200,3.019128173828125,0.04053396270126104,-0.1953586137101054,-0.052690556702017784
1684131460723099000,3.029098876953125,0.07261515435576439,-0.23432576548606157,-0.0685188249528408
1684131460733070000,3.039070068359375,0.09549041850864887,-0.2433431846782565,-0.034466333225369454
1684131460743041000,3.049041015625,0.08887596880495548,-0.21196984903216362,0.02212415352463722
1684131460753012000,3.059011962890625,0.0893365720540285,-0.19540332963466645,0.041081367450952526
1684131460762983200,3.068983154296875,0.07891630032658577,-0.16809271338284015,0.048611178433895105
1684131460772954000,3.0789541015625,0.03194529031515121,-0.13762217179536818,0.028911037185788153
1684131460782925000,3.088925048828125,0.02006079125404358,-0.1094224977493286,0.016287702456116677
1684131460792896000,3.09889599609375,0.032192543074488635,-0.0910512670174241,0.0029418986707925796
1684131460802867000,3.108866943359375,0.059869070029258724,-0.07267945176362992,-0.0016097732841968534
1684131460812838100,3.118838134765625,0.06847206320166588,-0.07355243520587683,0.0036491701573133466
1684131460822809900,3.128809814453125,0.03583703705668449,-0.06326967225298286,0.029109190106391906
1684131460832781000,3.138781005859375,0.0033285599008202552,-0.05686112038493156,0.03315641967058182
1684131460842752000,3.148751953125,-0.018029285426437853,-0.040144817253202195,0.008662029883265495
1684131460852723200,3.15872314453125,-0.05189794501960277,-0.039235301192849875,-0.041890930268168446
1684131460862694100,3.168694091796875,-0.10906652391850948,-0.029236177486926314,-0.1061550203859806
1684131460872664800,3.178664794921875,-0.1541425139635801,0.004732727610319853,-0.14139818320274353
1684131460882636000,3.188635986328125,-0.15725567754805087,0.04448869167640805,-0.14987901130020617
1684131460892607000,3.19860693359375,-0.12684125006198882,0.05993263678476214,-0.15112112031579017
1684131460902578200,3.208578125,-0.08499825058877468,0.06347717752382159,-0.12166297064125538
1684131460912549000,3.218549072265625,-0.07010697092711925,0.04133534221202135,-0.08308861757516861
1684131460922520000,3.22852001953125,-0.052964405207335946,0.028209903179109094,-0.03861293151080608
1684131460932491000,3.238490966796875,-0.04250000207722187,0.03692614746764302,0.0017617489755153656
1684131460942462000,3.2484619140625,-0.03815525087118148,0.044642567063868044,-0.007423427999019622
1684131460952433200,3.25843310546875,-0.024118834473192692,0.07627864529937506,-0.04300795159935951
1684131460962404000,3.268404052734375,-0.01565758785903454,0.1013058267891407,-0.07459551451802253
1684131460972375000,3.278375,-0.0024719430714845655,0.11105535964816808,-0.07250467971861362
1684131460982346000,3.288345947265625,0.009831073662638664,0.10961992001757025,-0.05378185907006264
1684131460992317000,3.29831689453125,0.01949555858671665,0.08484875911548734,-0.013545710271596907
1684131461002288000,3.3082880859375,0.03944704424738884,0.04570610464215279,0.030368834778666493
1684131461012259000,3.318259033203125,0.039861470267176624,0.004580898049473763,0.08837561806738375
1684131461022230300,3.328230224609375,0.05689268456697464,-0.03710764151439071,0.1336924311310053
1684131461032201000,3.338200927734375,0.06759031193107366,-0.04220481852293014,0.16544366017878054
1684131461042172000,3.348171875,0.09247077842652797,-0.04445712749436497,0.16882921096384523
1684131461052143000,3.35814306640625,0.09188011905699968,-0.030286709453165528,0.13713935671448707
1684131461062114000,3.368114013671875,0.09114011434465646,-0.007444324656575917,0.0848234785437584
1684131461072085200,3.378085205078125,0.08109890506267547,0.006508797372132539,0.0420411523938179
1684131461082057000,3.388056884765625,0.06535656152963638,-0.00655059068724513,-0.0027747254103422164
1684131461092028200,3.398028076171875,0.05497077659368515,-0.016882015087455512,-0.038058220237493515
1684131461101999000,3.4079990234375,0.023314824613928795,-0.02085924815535545,-0.06425181515812874
1684131461111970000,3.417969970703125,0.007989245188236236,-0.006815379103273153,-0.05499298842549324
1684131461121941000,3.42794091796875,0.011651274827122688,0.023557255067676305,-0.010528992798924445
1684131461131912000,3.437911865234375,0.024632336953282354,0.06255421746000647,0.07433131062388419
1684131461141883100,3.447883056640625,0.08003565974533558,0.14937909895405171,0.161093648275733
1684131461151854000,3.45785400390625,0.14323533550202847,0.2342937629126012,0.24305589216947554
1684131461161825000,3.467824951171875,0.2205921314269304,0.31409473711922764,0.3047323038816452
1684131461171796000,3.4777958984375,0.21312574106901883,0.3836830909997225,0.28404548968374727
1684131461181767000,3.487766845703125,0.11515841105282305,0.40486996367424727,0.19503975701928136
1684131461191738000,3.497738037109375,-0.0328323022827506,0.3614448095761239,0.036598669078946114
1684131461201709000,3.507708984375,-0.17699030558764933,0.26471432787850496,-0.16259586953222752
1684131461211680000,3.517679931640625,-0.2403963175714016,0.17797624788507818,-0.30779578310549255
1684131461221651200,3.527651123046875,-0.21897212900966403,0.1017358887694776,-0.2977659720003605
1684131461231622000,3.537621826171875,-0.1378828685581684,0.04933788527324796,-0.17717209189534186
1684131461241593000,3.547593017578125,-0.07282002927809954,-0.005776683705300092,-0.03717325409650803
1684131461251564000,3.55756396484375,-0.024563947892189023,-0.03324029856175184,0.07006254726350307
1684131461261535000,3.567534912109375,0.02162614087462425,-0.04221767800450325,0.12457447417378426
1684131461271506200,3.577506103515625,0.058609425356984136,-0.06454962906092405,0.12997311834692954
1684131461281476900,3.587476806640625,0.10630173538029193,-0.06329115343242883,0.14185937097370624
1684131461291448000,3.597447998046875,0.17088906610310076,-0.0919957082606852,0.13424363527297972
1684131461301419000,3.6074189453125,0.22491496306210754,-0.1317065180107951,0.12951251509785652
1684131461311391200,3.61739111328125,0.26699644746631385,-0.19435498962551354,0.13833938015401362
1684131461321362000,3.62736181640625,0.2956266218841076,-0.23915610825195907,0.1681868214070797
1684131461331333000,3.6373330078125,0.30687282304167746,-0.268146786545217,0.18238485810756683
1684131461341304000,3.647303955078125,0.26855390604138374,-0.2650270470894873,0.1828162352621555
1684131461351275000,3.65727490234375,0.22124796498715876,-0.2573741942487657,0.2292541613101959
1684131461361246200,3.66724609375,0.16447627645134924,-0.23081512701660392,0.19948972216546534
1684131461371217000,3.677216796875,0.09238310014307498,-0.21802228093892334,0.1320803197592497
1684131461381188000,3.68718798828125,0.04355623313188552,-0.1871326371565461,0.025992519390583037
1684131461391159000,3.697158935546875,-0.012237550282478332,-0.1526104820907116,-0.07736439470946789
1684131461401130000,3.7071298828125,-0.08171557565629482,-0.12166881586015224,-0.15497253504693506
1684131461411101200,3.71710107421875,-0.11770400388240813,-0.11210150770023465,-0.2259779161185026
1684131461421072100,3.727072021484375,-0.12639876699149608,-0.08768062154054641,-0.25335984404087064
1684131461431043000,3.73704296875,-0.14738193378746509,-0.06785290839001536,-0.24872049380242822
1684131461441014000,3.747013916015625,-0.17472206839472054,-0.049270665255933994,-0.23814999994933603
1684131461450985000,3.75698486328125,-0.18612959759384393,-0.025507366222143172,-0.18603519730865956
1684131461460956200,3.7669560546875,-0.1571405267357826,0.005021627554297447,-0.12989128528237343
1684131461470927000,3.776927001953125,-0.15807225462794303,0.0101290336959064,-0.0997720413506031
1684131461480898000,3.78689794921875,-0.15980331620424984,0.02457140054628253,-0.08357026361227035
1684131461490869000,3.796868896484375,-0.15721651458144187,0.04042816423922777,-0.1111222874045372
1684131461500840000,3.80683984375,-0.1419090553343296,0.053668169562518596,-0.1394990715831518
1684131461510811100,3.81681103515625,-0.11706336789131164,0.06230082722082734,-0.15587795945405958
1684131461520782800,3.826782958984375,-0.1096107137978077,0.058829643978923554,-0.1721954725265503
1684131461530754000,3.836754150390625,-0.1187643265902996,0.05269640192091465,-0.14150573523044585
1684131461540725000,3.84672509765625,-0.10015256510078907,0.043039661911875006,-0.11715981400310993
1684131461550696200,3.8566962890625,-0.07722118684649466,0.03821560275629163,-0.07958090171515941
1684131461560667100,3.866667236328125,-0.019970774883031842,0.03178673875257373,-0.03885433905124664
1684131461570637800,3.876637939453125,0.005137947410345077,0.022163754882663488,-0.0022591771036386487
1684131461580609000,3.886609130859375,0.024686697489023208,0.008381313245743512,0.021812018835544584
1684131461590580000,3.896580078125,0.020994564972817896,0.0007088789217174052,0.03415186044871807
1684131461600551200,3.90655126953125,0.03558043194711208,0.00152954765483737,0.042676527687907216
1684131461610522000,3.916522216796875,0.04889116441905498,-0.02863587350621819,0.055288171979784966
1684131461620493000,3.9264931640625,0.06659165628254413,-0.043544542694091797,0.0616390023112297
1684131461630464000,3.936464111328125,0.0713008568868041,-0.04876286186426878,0.03656827394068241
1684131461640435000,3.94643505859375,0.05333411530256271,-0.06906184578835964,0.015407997012138366
1684131461650406100,3.95640625,0.02287935580611229,-0.05736687794998288,0.005904255607724189
1684131461660377000,3.966377197265625,0.010119535215198993,-0.03901858970224857,0.00921381854712963
1684131461670348000,3.97634814453125,0.005848726028203964,-0.02745397024527192,0.016238018095493315
1684131461680319000,3.986319091796875,0.013217208969593048,-0.015086656103283165,0.019294483056664466
1684131461690290000,3.9962900390625,0.021592823126912117,-0.02286956506446004,0.0158335289478302
1684131461700261000,4.00626123046875,0.009074702337384223,-0.03533259466588497,0.009096329647302627
1684131461710233000,4.016233154296875,0.01549976694881916,-0.0343640418946743,0.00460018727183342
1684131461720201000,4.026200927734375,0.021282149742543697,-0.03862155320867896,-0.03334112858772278
1684131461730172000,4.036171875,0.010983750829100608,-0.022672142796218393,-0.022937807995080946
1684131461740143000,4.04614306640625,-0.006782207486033439,-0.015759440798312426,-0.021785130828619003
1684131461750114000,4.056114013671875,-0.026660627910494804,-0.0108196463085711,-0.026287118422985076
1684131461760085000,4.0660849609375,-0.03661737377941608,0.008283698090165853,-0.026812603601813315
1684131461770056000,4.076055908203125,-0.049396775853633876,0.023004443490505216,-0.027935470151901242
1684131461780027000,4.08602685546875,-0.0534285155877471,0.03739887954592704,-0.02473579732775688
1684131461789998000,4.095998046875,-0.04333119220435619,0.03616480770632624,-0.02929799067676067
1684131461799969000,4.105968994140625,-0.0446422748029232,0.017746230701357127,-0.044648120021820066
1684131461809940000,4.11593994140625,-0.030723055043816564,0.022923341078311205,-0.05214110612571239
1684131461819911000,4.125910888671875,-0.01356090784072876,0.03624444881379604,-0.04352057729661465
1684131461829881900,4.1358818359375,0.002032382610440254,0.052643941081315274,-0.03350304115116596
1684131461839853000,4.14585302734375,0.00294102188795805,0.060266983305662866,-0.004634674063324928
1684131461849824000,4.155823974609375,-0.00010229133069515228,0.054568479403108355,0.006866963160037994
1684131461859795000,4.165794921875,-0.003832710030674934,0.04098243712112307,0.026112930899858472
1684131461869766000,4.175765869140625,-0.0029062428355216977,0.028398411488533018,0.03813420808315277
1684131461879736800,4.18573681640625,0.0008230068206787109,0.028938948106020688,0.03329436683654785
1684131461889709000,4.195708984375,0.0025926468417048452,0.04764569440260529,0.038759061983227726
1684131461899680000,4.205679931640625,0.0024979542955756184,0.07085837381631135,0.028210779961943624
1684131461909651000,4.21565087890625,-0.00815291131734848,0.07745324203670025,0.025058453410863876
1684131461919622000,4.225621826171875,0.005198153164982795,0.06990194987431168,0.031002456507086752
1684131461929592800,4.2355927734375,0.0073506550237536425,0.025832506523281333,0.010950433081388473
1684131461939564000,4.24556396484375,-0.00003974748849868774,-0.02782426486238837,0.008871288719773293
1684131461949535000,4.255534912109375,0.032677988503873344,-0.07847776277884841,0.0025280571728944776
1684131461959506000,4.265505859375,0.04784077858328819,-0.09418868826031684,0.024898878934979437
1684131461969476900,4.275476806640625,0.07187982581853866,-0.08782514457777142,0.03569850536882877
1684131461979448000,4.285447998046875,0.09705226099789142,-0.07375219556167721,0.030735330003499983
1684131461989419000,4.2954189453125,0.10428776520937681,-0.04230769437551498,0.0134545248568058
1684131461999390000,4.305389892578125,0.09948621014654636,-0.023984102177619933,-0.008645078748464584
1684131462009361200,4.315361083984375,0.0918222513899207,-0.021225304988771676,0.0053320086777210235
1684131462019331800,4.325331787109375,0.10980477506518363,-0.04726195578202605,-0.011263736814260482
1684131462029303000,4.335302978515625,0.11628478473424911,-0.08509016665592789,0.03582885375022888
1684131462039274000,4.34527392578125,0.12638356942236423,-0.11527721512690185,0.07056172895729541
1684131462049245000,4.355244873046875,0.1171016540750861,-0.12137582426294684,0.10236614949703216
1684131462059216100,4.365216064453125,0.08329261571466923,-0.08965732844099401,0.12284896555542946
1684131462069187800,4.375187744140625,0.052610477203130716,-0.023957506431639193,0.09800152454674244
1684131462079159000,4.385158935546875,0.022911212249100206,0.04442673235610127,0.07159282557070255
1684131462089130000,4.3951298828125,-0.013754384586215019,0.11821151501312852,0.04412555745244026
1684131462099101200,4.40510107421875,-0.06109715051949024,0.16068097582161425,0.008746201035380362
1684131462109072000,4.41507177734375,-0.07473843012005091,0.15196575444638727,-0.041655367946624756
1684131462119042800,4.425042724609375,-0.10398819774091243,0.12108180975243449,-0.06891337722837924
1684131462129014000,4.435013916015625,-0.11621464210748672,0.07777852846831083,-0.0801519796013832
1684131462138985000,4.44498486328125,-0.12819675632417202,0.03715513391792774,-0.09945756857395172
1684131462148956200,4.4549560546875,-0.1320148533076048,0.012720657624304294,-0.10380933404266833
1684131462158926800,4.4649267578125,-0.13473463366031646,0.01678615349754691,-0.11065466989278792
1684131462168897800,4.474897705078125,-0.13570552451908588,0.02073576790615916,-0.1227899288445711
1684131462178869000,4.484868896484375,-0.1246004853978753,0.039678514915704725,-0.12016367199420928
1684131462188840000,4.49483984375,-0.12189356452673673,0.041990152858942746,-0.0919072993248701
1684131462198811100,4.50481103515625,-0.09010463381707667,-0.0013161971651017665,-0.08005553348958491
1684131462208782000,4.514781982421875,-0.08136252443492412,-0.04785875263139605,-0.09007131606936454
1684131462218752800,4.524752685546875,-0.08607230956107377,-0.0858544290266931,-0.08578209444284439
1684131462228725000,4.53472509765625,-0.07211305005252361,-0.11475801355838774,-0.09456219774782657
1684131462238696000,4.544696044921875,-0.04954699797928333,-0.11418342854082583,-0.10154314267635345
1684131462248667000,4.5546669921875,-0.04560907400846481,-0.09961801983267068,-0.08972294102311133
1684131462258637800,4.564637939453125,-0.02030424462109804,-0.062433952081203455,-0.07595861956477165
1684131462268609000,4.574609130859375,0.005583353090286254,-0.0308380597256124,-0.0534001662760973
1684131462278580000,4.584580078125,0.019991233149170874,-0.01010506829842925,-0.03253156577050686
1684131462288551000,4.594551025390625,0.027054011142253875,0.0031231004565954205,-0.010627192476391791
1684131462298522000,4.604522216796875,0.042839024773240086,-0.00632774171680212,-0.0006897358298301697
1684131462308492800,4.614492919921875,0.07941460523754358,-0.021357406935840845,0.002847790646553039
1684131462318464000,4.624464111328125,0.11593611742705107,-0.016261398971080778,0.0035328503012657165
1684131462328435000,4.63443505859375,0.16164689824432132,-0.016046294915676117,0.04797638766169548
1684131462338406000,4.644406005859375,0.21585195116251707,-0.031178397595882413,0.11258709926009178
1684131462348377000,4.654377197265625,0.2523366384729743,0.004171878857165575,0.14893910010159014
1684131462358347800,4.66434765625,0.2767439344987273,0.055498892121016975,0.19641689059138298
1684131462368319000,4.674319091796875,0.20947101795375345,0.08807663512080907,0.2146978126913309
1684131462378290000,4.6842900390625,0.05994564239680767,0.07214753684401512,0.19926701932549476
1684131462388261000,4.69426123046875,-0.07826894233375788,-0.010706833583861588,0.114041389721632
1684131462398232800,4.70423291015625,-0.13967325910627842,-0.10852218790873884,0.020691490373015403
1684131462408204000,4.7142041015625,-0.14689619609713553,-0.20758198933675884,-0.056228667700290676
1684131462418175000,4.724175048828125,-0.1258452247619629,-0.24977570194378493,-0.11742051076591015
1684131462428146000,4.73414599609375,-0.10620938092172146,-0.2272754085831344,-0.15371347489655016
1684131462438117000,4.7441171875,-0.07284487145841122,-0.17420798139274118,-0.1473994694441557
1684131462448087800,4.754087890625,-0.058734513041377064,-0.09285466317757964,-0.10297580582797526
1684131462458059000,4.76405908203125,-0.05019026431888342,-0.0238907248057425,-0.06842822405993938
1684131462468030000,4.774030029296875,-0.050368835756182666,0.01700096529200673,-0.04676993448138237
1684131462478001000,4.7840009765625,-0.07434796949774027,0.05393778028413653,-0.026826047605276106
1684131462487972000,4.79397216796875,-0.0835483440414071,0.06796016815677285,-0.03119476420879364
1684131462497943000,4.803943115234375,-0.09863748436272143,0.08593319335132837,-0.04044833024442196
1684131462507914000,4.8139140625,-0.093684830391407,0.09037044514641165,-0.04320201286673546
1684131462517885000,4.823885009765625,-0.07281330727636813,0.08188245665580034,-0.030351299121975896
1684131462527855900,4.83385595703125,-0.05590834970474243,0.08154577204734087,-0.012571312281489371
1684131462537827000,4.8438271484375,-0.04034486986994743,0.08985299714356661,0.001983282771706581
1684131462547798000,4.853798095703125,-0.03552607141137123,0.09624079848453403,0.01075578729212284
1684131462557770000,4.86377001953125,-0.006740706431865692,0.08060454567447305,0.0041571196794509884
1684131462567741000,4.873740966796875,0.015141455030441283,0.08970350567027927,-0.008482581663131714
1684131462577712000,4.883712158203125,0.036596330991387364,0.11070420812293887,-0.01571487100422382
1684131462587683000,4.89368310546875,0.054012160694599146,0.1245079848088324,-0.0016465981632471083
1684131462597653800,4.90365380859375,0.049824645876884455,0.13665741841644047,0.017313538372516632
1684131462607625000,4.913625,0.054577393361926074,0.12198168120160698,0.048017888715863224
1684131462617596000,4.923595947265625,0.04541004430502653,0.09651113985851406,0.06583002426028252
1684131462627567000,4.933567138671875,0.03316109584569931,0.05746054758280515,0.08692600378096103
1684131462637538000,4.9435380859375,0.042318800291419024,0.02698167655840516,0.10118307719230651
1684131462647508700,4.9535087890625,0.0536830748707056,0.006518149722367524,0.11250175906419753
1684131462657480000,4.96347998046875,0.07333703888952732,-0.017567074742168187,0.11103227103352546
1684131462667451000,4.973450927734375,0.08753449106812476,-0.03041735009551048,0.09941548299789428
1684131462677422000,4.983422119140625,0.09209785346090793,-0.05168298709467053,0.06923895592093467
1684131462687393000,4.99339306640625,0.09366232629865408,-0.058521454812586304,0.06462006394863128
1684131462697364000,5.003364013671875,0.10886720195412636,-0.06801102156117558,0.03708148415982723
1684131462707336000,5.0133359375,0.11134732833206652,-0.06467866226807237,0.03548515487909317
1684131462717307100,5.02330712890625,0.1093731056496501,-0.06328866921439767,0.05062134921252727
1684131462727278000,5.033278076171875,0.10120967293828725,-0.0549684385061264,0.06299626213908195
1684131462737249000,5.0432490234375,0.10836334408521651,-0.045307606843858955,0.08010755593776703
1684131462747220000,5.053219970703125,0.10837971069812774,-0.057600832836329934,0.09478606963157653
1684131462757191000,5.06319091796875,0.10250497344583272,-0.060201955245435236,0.09402969830632209
1684131462767162000,5.073162109375,0.08747545435726642,-0.05291311341151595,0.08387187690734862
1684131462777133000,5.083133056640625,0.05097673852145672,-0.05234831913560629,0.058690089377760886
1684131462787104300,5.093104248046875,0.040169221042096616,-0.03758358846306801,0.03764613230526447
1684131462797075000,5.103074951171875,0.0007622165441513061,-0.027087913411855697,0.01303016196489334
1684131462807046000,5.1130458984375,-0.014321078558266162,0.004373246648162603,-0.01798106237053871
1684131462817017000,5.12301708984375,-0.05432663347125053,0.029314357289671897,-0.05407002836167812
1684131462826988000,5.132988037109375,-0.07690554502606392,0.0405532519236207,-0.08101999460756779
1684131462836959200,5.142959228515625,-0.0559182865768671,0.06361074077561497,-0.08477320966124534
1684131462846930000,5.152929931640625,-0.03204465903639793,0.1032967083454132,-0.09662322193086147
1684131462856900900,5.16290087890625,-0.034545828202366825,0.13511647258475423,-0.11463994013667106
1684131462866873000,5.172873046875,-0.04209551292955875,0.169108466296643,-0.086670567715168
1684131462876844000,5.182843994140625,-0.0572036502122879,0.14899594485536216,-0.04947101013362407
1684131462886815000,5.19281494140625,-0.0791264359459281,0.09428001980558037,-0.021269582521915433
1684131462896786000,5.202785888671875,-0.08769026615172625,0.013334990130364894,-0.0241337397813797
1684131462906757000,5.212757080078125,-0.08304594747722148,-0.0725065794147551,-0.03993278193771839
1684131462916728000,5.22272802734375,-0.10376257229149341,-0.12064078798666596,-0.056709729215502734
1684131462926699300,5.23269921875,-0.09817162041664124,-0.13443287423476577,-0.061032268589735025
1684131462936670000,5.242669921875,-0.09320201531052588,-0.10885478086397052,-0.08965981265902519
1684131462946641000,5.252640869140625,-0.06947685633003711,-0.06684840752258897,-0.10582535004019737
1684131462956612000,5.262612060546875,-0.07473112359642982,-0.021592823126912117,-0.09908873526155948
1684131462966583000,5.2725830078125,-0.051769350203871724,0.02958089927136898,-0.043722237348556514
1684131462976554200,5.28255419921875,-0.044887189474701876,0.08152253730222582,-0.015517887127399444
1684131462986525200,5.292525146484375,-0.06714461399018765,0.14397066403925418,-0.016873393389582634
1684131462996496000,5.302495849609375,-0.0894762727856636,0.18347791404128075,-0.015473463463783263
1684131463006467000,5.312467041015625,-0.08839227694123983,0.16351093855053186,-0.0011684592574834824
1684131463016439000,5.32243896484375,-0.09435264665037393,0.10790434827134013,-0.036005379360914226
1684131463026410000,5.332409912109375,-0.11238982312232255,0.056762920707464214,-0.08179156350195407
1684131463036381000,5.342380859375,-0.11254384464025496,-0.0034480946272611615,-0.13892331752181053
1684131463046352100,5.35235205078125,-0.03633972588181496,-0.050177697098255154,-0.09771686238646507
1684131463056323000,5.362322998046875,0.06786445269733667,-0.08568827867954969,0.01602817473709583
1684131463066294000,5.3722939453125,0.12367138785421848,-0.1371194829702377,0.02726911519765854
1684131463076265200,5.38226513671875,0.13124153084754944,-0.17331643938049673,0.060333180409669875
1684131463086236000,5.39223583984375,0.12457038252055644,-0.20920228401497004,0.06284662453532218
1684131463096207000,5.40220703125,0.1707610558092594,-0.23513445152044296,0.14450024087131022
1684131463106178000,5.412177978515625,0.2743891880661249,-0.2879563795171678,0.173428813713789
1684131463116149000,5.42214892578125,0.32292437865436074,-0.32592239142656326,0.14960077888071535
1684131463126120200,5.4321201171875,0.29578181244581936,-0.32426687930449843,0.09925883113145828
1684131463136091000,5.4420908203125,0.23497516930550336,-0.28375834330543875,0.04318389268815517
1684131463146062000,5.45206201171875,0.1733972495317459,-0.18966990054920316,0.02729775677025318
1684131463156033000,5.462032958984375,0.09472527935504912,-0.06541442919671535,0.03612345278263092
1684131463166005200,5.472005126953125,0.027977555727958677,0.059627077966928475,0.04849193596839905
1684131463175976000,5.481975830078125,-0.03448036175072193,0.12601970454603434,0.08766483944952487
1684131463185947000,5.49194677734375,-0.09230652777552605,0.1311610129572451,0.11243687713444232
1684131463195918000,5.50191796875,-0.12559475713223217,0.09349661434292793,0.05751987655460834
1684131463205889000,5.511888916015625,-0.14991875878870486,0.07585428240746259,-0.006747136172652244
1684131463215860200,5.521860107421875,-0.16639847668558358,0.07727642416507005,-0.08641396260559558
1684131463225831000,5.531830810546875,-0.14536854813843963,0.10086495115384458,-0.14237258119285107
1684131463235801900,5.5418017578125,-0.12407236987054347,0.11104542277604341,-0.14384674539864062
1684131463245773000,5.55177294921875,-0.11211772818267345,0.12326134574860334,-0.15512158812880514
1684131463255744000,5.561743896484375,-0.11874912902116774,0.12289616569802164,-0.15503098723590372
1684131463265715200,5.571715087890625,-0.13024316745996475,0.12291413974612951,-0.1393523565888405
1684131463275686100,5.58168603515625,-0.1103945576518774,0.1268478259332478,-0.10834931555986403
1684131463285656800,5.59165673828125,-0.04749854101687669,0.11718085679113864,-0.09161386933624743
1684131463295628000,5.6016279296875,0.01339139649271965,0.0840823047876358,-0.04916822779476642
1684131463305599000,5.611598876953125,0.04723170677423477,0.05401084552034735,-0.0004611877709627151
1684131463315571000,5.621571044921875,0.08489099082201719,-0.0026667349912226196,0.0326952318996191
1684131463325542000,5.6315419921875,0.08487520873099565,-0.055944443931430575,0.0733726947247982
1684131463335513000,5.64151318359375,0.09493132332116365,-0.07868161478787661,0.11905483396947383
1684131463345484000,5.651484130859375,0.10249415979087352,-0.09909107334911822,0.14510054485201834
1684131463355455200,5.661455322265625,0.08686901289671659,-0.10629282142147421,0.12271160291135311
1684131463365426200,5.67142626953125,0.06569090805053711,-0.09209230050295591,0.0740261901974678
1684131463375396900,5.68139697265625,0.04832184009850025,-0.07650339396595955,0.059985389885306356
1684131463385368000,5.6913681640625,0.04390431591719389,-0.0735711399063468,0.01835749446749687
1684131463395339000,5.701339111328125,0.004433890794217586,-0.03815729669779539,-0.037972295519709584
1684131463405310200,5.711310302734375,-0.0350742359906435,0.0057195466905832285,-0.04034837700128555
1684131463415281200,5.72128125,-0.052610477203130716,0.03767433548644185,-0.07992869223952292
1684131463425251800,5.731251953125,-0.07947861038446426,0.038445319858938454,-0.14669979674220085
1684131463435223000,5.74122314453125,-0.15239567029625176,0.09288914996907115,-0.098556235820055
1684131463445194000,5.751194091796875,-0.08157938205599784,0.10485431305095552,-0.08763970500826836
1684131463455166200,5.761166259765625,-0.07936755122542381,0.07931465199440717,-0.12036942369937896
1684131463465137000,5.771136962890625,-0.15090046330243348,0.09433438034132123,-0.09784487268030644
1684131463475108000,5.781108154296875,-0.09518003738522529,0.11110329044312238,-0.060299862661957734
1684131463485079000,5.7910791015625,-0.0599722381427884,0.07142696748450399,-0.03688976098001003
1684131463495050000,5.801050048828125,-0.07847001786381005,0.030609657797217367,-0.06145429339408874
1684131463505021200,5.811021240234375,-0.08304887008666992,0.028991262815147637,-0.03991407723724842
1684131463514991900,5.820991943359375,-0.029795418804883955,0.03918444778844714,0.03002396686375141
1684131463524963000,5.830963134765625,0.013783026158809662,0.025942835029959678,0.027870588222146032
1684131463534934000,5.84093408203125,0.0033458032965660092,0.05516045394688844,0.0742091455489397
1684131463544905000,5.850905029296875,0.006653028148412704,0.017286358104646207,0.061222238203883166
1684131463554876200,5.860876220703125,-0.02872720505148172,-0.02050824276059866,-0.04460077374875545
1684131463564847000,5.87084716796875,-0.026430618546903133,-0.007491817060112952,-0.022835516664385793
1684131463574818000,5.880818115234375,0.06502981379330158,-0.05182677947953343,-0.0009293898046016692
1684131463584789000,5.8907890625,0.08944500086456536,-0.1270583999440074,-0.029499650728702545
1684131463594760000,5.900760009765625,0.06410334659814834,-0.14606310627385974,-0.012861235138773918
1684131463604732200,5.910732177734375,0.06487111610025167,-0.18405425262451172,0.029800094980001447
1684131463614702800,5.920702880859375,0.07977145585119724,-0.19028379466384648,0.019521862071752546
1684131463624674000,5.930674072265625,0.0800824214965105,-0.16558321477994323,0.029557518395781517
1684131463634645000,5.94064501953125,0.06270984641313553,-0.11570654645487666,0.030091771402955055
1684131463644616200,5.9506162109375,0.06615384938716888,-0.06562792581692338,0.04071896387934684
1684131463654587100,5.960587158203125,0.07624503529071808,-0.02810761184841394,0.05832476319670677
1684131463664557800,5.970557861328125,0.0605304565474391,-0.006976853275299072,0.05877367600798607
1684131463674529000,5.980529052734375,0.034354105022549625,0.0004313771545886993,0.06002805998325347
1684131463684500000,5.9905,0.025187925009429454,0.017625234670192003,0.05118716640174389
1684131463694471200,6.00047119140625,-0.007571312037110328,0.03720832540988922,0.03129705553948879
1684131463704442000,6.010442138671875,-0.018303426192700863,0.04478168327361345,0.015728315007686615
1684131463714413000,6.0204130859375,-0.02486877605766058,0.060585547735542054,-0.017916764962673186
1684131463724383200,6.03038330078125,-0.05068798470795154,0.0780685974560678,-0.04525017756819725
1684131463734354400,6.0403544921875,-0.06215571966171264,0.07186623568460344,-0.058362757119536396
1684131463744326400,6.050326416015625,-0.06228197638988495,0.058407034652680156,-0.07248539049625397
1684131463754297600,6.060297607421875,-0.0652338119328022,0.04661547457203269,-0.07549217109680176
1684131463764268300,6.070268310546875,-0.06201601893007755,0.034210751029103995,-0.07706453498005866
1684131463774239500,6.080239501953125,-0.06218026958107948,0.031064123566448686,-0.0541927779585123
1684131463784210400,6.09021044921875,-0.05658902544528246,0.03569149110615253,-0.04219955782592296
1684131463794181400,6.100181396484375,-0.053041269835829734,0.019606910006701946,-0.03158697839677334
1684131463804152600,6.110152587890625,-0.03460895656645298,0.024752456201612948,-0.016761749708652494
1684131463814123500,6.12012353515625,-0.031258184833824636,0.017123276497423647,0.01109130285680294
1684131463824094500,6.130094482421875,-0.029935119536519048,-0.005502104547619819,0.004586743268370628
1684131463834065400,6.1400654296875,-0.013845570001006125,-0.032779256921261546,-0.0006955810487270354
1684131463844036600,6.15003662109375,-0.006534077943861484,-0.04846592474430799,0.0029255320578813553
1684131463854007600,6.160007568359375,0.011903788283467292,-0.05916121402084827,0.00794248343706131
1684131463863978500,6.169978515625,0.006510989329218864,-0.059428778915852305,-0.0059235448300838465
1684131463873949400,6.179949462890625,0.014315233339369297,-0.05476721684560179,0.00015665186643600462
1684131463883920400,6.18992041015625,0.006502221500873566,-0.04799231588318944,-0.005160743764042854
1684131463893892600,6.199892578125,0.00874503199160099,-0.02226151616871357,0.0007452654093503951
1684131463903863600,6.209863525390625,0.004411971223354339,-0.01731777615621686,0.001647182685136795
1684131463913834500,6.21983447265625,0.01406710379719734,-0.0353989379003644,-0.014797756159305571
1684131463923805400,6.229805419921875,0.019675006806850432,-0.036361060930788516,-0.024651041653752325
1684131463933776400,6.2397763671875,0.004487959069013595,-0.04802504910901188,-0.006936521264910698
1684131463943747600,6.24974755859375,-0.0022889877200126646,-0.06408668772429227,-0.018217793735861777
1684131463953718500,6.259718505859375,-0.0012304185777902603,-0.05700374372601509,-0.026453122639656067
1684131463963689500,6.269689453125,-0.008583119428157806,-0.043170887076109644,-0.0258721078813076
1684131463973660400,6.279660400390625,-0.017835224159061906,-0.020308044013381002,-0.04538578664660454
1684131463983631400,6.28963134765625,-0.024913491982221602,-0.005680968245863914,-0.040056116056442256
1684131463993602600,6.2996025390625,-0.03294803761690855,0.010925883162021637,-0.031121114450693127
1684131464003573500,6.309573486328125,-0.013174538871645927,0.019556348863244057,-0.023214871370792388
1684131464013544400,6.31954443359375,-0.004178162467479705,0.028286183285713196,0.0009083470165729522
1684131464023515400,6.329515380859375,0.028777181673049924,0.021448738481104374,0.009057166680693627
1684131464033486300,6.339486328125,0.028207565091550348,0.03985957057103515,0.03323708369135856
1684131464043458600,6.34945849609375,0.040514381217956544,0.04435571294650435,0.03251052298247814
1684131464053429200,6.35942919921875,0.050557928587496276,0.04791910451650619,0.041269583499431606
1684131464063400400,6.369400390625,0.034302667096257206,0.0647990737773478,0.04929974521994591
1684131464073371400,6.379371337890625,0.019301205058395863,0.06017667467370629,0.05423778614401817
1684131464083342600,6.389342529296875,0.011795651733875274,0.06363032225891947,0.07145195579528808
1684131464093313500,6.3993134765625,0.021685177585482596,0.04352349990606308,0.07790215484797954
1684131464103284500,6.409284423828125,0.011470949824154376,0.01794189940392971,0.04692892443537712
1684131464113255400,6.41925537109375,-0.016151801116764543,0.010932605163753032,0.021753566646575927
1684131464123226400,6.429226318359375,-0.04854162032902241,0.00864551713988185,0.002205401089787483
1684131464133197600,6.439197509765625,-0.04902648123651743,0.0006286532923579216,-0.025386370190978048
1684131464143168500,6.44916845703125,-0.04481821589171886,-0.009261895472556353,-0.04947685535252094
1684131464153139500,6.459139404296875,0.0035661680489778515,-0.019610417138040064,-0.05395078589618206
1684131464163110400,6.4691103515625,0.022797522741556168,-0.015007307256758213,-0.04557867887020111
1684131464173081300,6.479081298828125,0.02421381928026676,-0.004959229842573404,-0.0026858780831098554
1684131464183053600,6.489053466796875,0.01416384216994047,0.006403437301516533,0.023646248525381088
1684131464193024500,6.4990244140625,0.010986673438549041,0.005120704014599323,0.03933773865401745
1684131464202995500,6.508995361328125,0.011091887378692626,-0.006720540426671504,0.044914077481627464
1684131464212966400,6.51896630859375,0.0031429742008447646,-0.012132482472807168,0.02294774486720562
1684131464222937300,6.528937255859375,-0.004844517421722412,-0.02574161336943507,0.013888824620842934
1684131464232908500,6.538908447265625,-0.004422200356423854,-0.03306801073476672,-0.0075333181142807
1684131464242879500,6.54887939453125,-0.005251052395999431,-0.04397548145726323,-0.02901274399459362
1684131464252850400,6.558850341796875,-0.006382102252542972,-0.02796981081292033,-0.039161213043332095
1684131464262821400,6.5688212890625,-0.011008300748467445,-0.01778831627741456,-0.05853986725211143
1684131464272792600,6.57879248046875,-0.01985971572399139,-0.014719722487032412,-0.06557926436960697
1684131464282763500,6.588763427734375,-0.036523265755176545,-0.02710325711145997,-0.07680734534859657
1684131464292734500,6.598734375,-0.03499181840419769,-0.03707037824392319,-0.08186930491328238
1684131464302705400,6.608705322265625,-0.023847324055433272,-0.028573329664021728,-0.0669675038576126
1684131464312677400,6.618677490234375,-0.025490122826397416,-0.022131021656841037,-0.02961713962852955
1684131464322648600,6.628648681640625,-0.01923544634580612,-0.009042699763923884,-0.008431143736839295
1684131464332619500,6.63861962890625,-0.008234159860014915,0.023550240805000067,0.004796586626768112
1684131464342590500,6.648590576171875,-0.01521393574476242,0.03818272339999675,0.031603345009684564
1684131464352561400,6.6585615234375,-0.0018909283131361007,0.04202580869421363,0.03862871360182762
1684131464362532400,6.668532470703125,-0.0017974048107862472,0.014946370849758386,0.014194529569149017
1684131464372503600,6.678503662109375,0.0007259761869907379,-0.006108253747224807,-0.018597148442268372
1684131464382474500,6.688474609375,-0.005903086563944816,-0.007514028891921043,-0.012487141129374503
1684131464392445400,6.698445556640625,0.016825462594628332,-0.002825724945217371,-0.017519874599575994
1684131464402416400,6.70841650390625,0.019381576818227768,-0.009951339041441678,-0.032144027757644654
1684131464412387300,6.71838720703125,0.010538052888214588,0.0010533084452152251,-0.023001520881056784
1684131464422358500,6.728358642578125,-0.00758650960624218,0.013125439032912254,0.004971358671784401
1684131464432329500,6.73832958984375,0.005021627554297447,0.007057809557020664,0.005682721811532974
1684131464442300700,6.74830078125,0.0031412206351757047,0.007196048983931541,0.0031651860326528548
1684131464452272400,6.7582724609375,-0.00575520252585411,-0.007162877366691828,0.016970424023270606
1684131464462243600,6.76824365234375,-0.0026738953843712804,-0.012222498843818902,0.011155015742778777
1684131464472214500,6.778214599609375,-0.011253215420246123,-0.01761529779806733,-0.0042430443972349165
1684131464482185500,6.788185546875,-0.02825461910367012,-0.014844371780008078,-0.015558803659677505
1684131464492156400,6.798156494140625,-0.028206103786826132,-0.00782177966684103,-0.023006781578063965
1684131464502127400,6.80812744140625,-0.03398556397110224,-0.003229191179573536,-0.016166121903061867
1684131464512098600,6.8180986328125,-0.042944238713383674,0.010400836374610662,-0.03207739226222038
1684131464522069500,6.828069580078125,-0.03420914359390735,0.007870002722740172,-0.04317980103492736
1684131464532040400,6.83804052734375,-0.023842355619370936,0.011225889021903275,-0.03777823425233364
1684131464542011400,6.848011474609375,-0.01628010367155075,0.005442483314871788,-0.043886487999558445
1684131464551982300,6.857982421875,-0.013047113099694252,-0.0012954466380178929,-0.05195113651156425
1684131464561953500,6.86795361328125,0.0007134089663624763,-0.011662526873499154,-0.039841012001037596
1684131464571924500,6.877924560546875,-0.0006178396373987198,-0.01484554082378745,-0.025001754787564275
1684131464581895400,6.8878955078125,-0.002587678405642509,-0.003497778987884521,-0.004987140762805938
1684131464591866400,6.897866455078125,0.002242225968837738,0.0007217384032905101,0.018931494963169097
1684131464601838300,6.90783837890625,0.021120821700990198,-0.004723521390557289,0.02965980972647667
1684131464611809500,6.9178095703125,0.010652911439538,-0.009078209468722342,0.03729717273712158
1684131464621780500,6.927780517578125,-0.0002776478976011276,-0.01472118379175663,0.03331891675591469
1684131464631751400,6.93775146484375,0.0003542202651500702,-0.03998860377818346,0.01577156962752342
1684131464641722400,6.947722412109375,0.0026677579045295712,-0.04750687045380473,-0.009329553881287575
1684131464651693600,6.957693603515625,0.00265606746673584,-0.04941796477213502,-0.009122633132338524
1684131464661664500,6.96766455078125,0.009437105908989905,-0.040847997086495155,-0.012144026780128478
1684131464671635500,6.977635498046875,0.020236147820949554,-0.03418605497926473,-0.007269698742032051
1684131464681606700,6.987606689453125,0.023120178824663162,-0.020029227072000503,-0.010991349613666533
1684131464691577300,6.997577392578125,0.016406944921612737,0.00428863710463047,-0.0020078326910734174
1684131464701548500,7.007548583984375,0.0067681789606809616,0.009940086995065212,0.00787058724462986
1684131464711519500,7.01751953125,-0.0036523850277066228,0.013928133717924356,0.006685176852345466
1684131464721490700,7.02749072265625,-0.017089958749711514,0.025644144344329833,0.012587678894400597
1684131464731462700,7.037462646484375,-0.013128946164250373,0.021265929260104892,0.018451017969846724
1684131464741433600,7.04743359375,-0.00816810888648033,0.0031124329321086403,0.008427636605501174
1684131464751404800,7.05740478515625,-0.008480828097462654,-0.00012362637966871262,-0.006516250026226043
1684131464761375700,7.067375732421875,0.006149170279502869,-0.01762085075601935,-0.010479308438301086
1684131464771346700,7.0773466796875,0.020788521006703375,-0.020117197616398335,-0.006571779605746269
1684131464781317600,7.087317626953125,0.026581717455387115,-0.007543254986405372,0.01766951220333576
1684131464791288600,7.09728857421875,0.018310732716321942,0.013039514315128325,0.026736031234264372
1684131464801259800,7.107259765625,0.023961305823922155,0.02608268189206719,0.04000993882715702
1684131464811230700,7.117230712890625,0.014521861827373504,0.017887538868188856,0.03280219940543175
1684131464821202000,7.127201904296875,0.011145955653488636,-0.007527180634438991,0.02083411371409893
1684131464831172600,7.137172607421875,0.0030471126109361648,-0.038573184022307395,-0.003731587743759155
1684131464841143600,7.1471435546875,-0.012333411872386933,-0.06722717770710587,-0.016222236004471778
1684131464851114800,7.15711474609375,-0.022161562925577163,-0.07759615763872861,-0.022687632626295088
1684131464861085700,7.167085693359375,-0.017301263412833213,-0.07594897495359182,-0.02582943778336048
1684131464871057700,7.1770576171875,-0.03241992208957672,-0.0519109506316483,-0.034171149671077726
1684131464881028600,7.187028564453125,-0.0305929989233613,-0.011262713900953531,-0.05019932440817356
1684131464890999800,7.196999755859375,-0.03133972563743591,0.01764013997837901,-0.03244973270595074
1684131464900970800,7.206970703125,-0.04763853400945663,0.04456409500017762,-0.028075755405426023
1684131464910941700,7.216941650390625,-0.062059858071804044,0.056175183947384355,-0.023939093992114066
1684131464920912600,7.22691259765625,-0.022788754913210866,0.029924013620615003,-0.026540800923109054
1684131464930883600,7.236883544921875,0.030512627163529395,-0.00863324218019843,-0.026848259437084198
1684131464940854800,7.246854736328125,0.037490941743552685,-0.0096389120914042,0.025524317356944083
1684131464950825700,7.25682568359375,0.03156856595724821,-0.004200228168815374,0.06689326957762241
1684131464960796700,7.266796630859375,0.033573768299818035,0.015680968734622002,0.08101122677922248
1684131464970767600,7.276767578125,0.05935059911310672,0.03068696081712842,0.09995382765829562
1684131464980738600,7.286738525390625,0.08098609233796596,0.04773439559936523,0.11242810930609702
1684131464990709800,7.296709716796875,0.09014087417423725,0.06306655089631677,0.09345745137631893
1684131465000680700,7.3066806640625,0.06528291177153588,0.07022577500119805,0.0627285511136055
1684131465010652700,7.316652587890625,0.04573065456151962,0.06629749564155936,0.04028466411530971
1684131465020623600,7.32662353515625,0.023167525097727775,0.052674043958634134,0.0210053786277771
1684131465030594800,7.3365947265625,0.021970424267649648,0.03711699386462569,0.003849661165475845
1684131465040565800,7.346565673828125,-0.0028840310037136076,0.025025720185041424,-0.007699906852841377
1684131465050536700,7.35653662109375,-0.023973580783605574,0.01022664885148406,-0.032041151905059816
1684131465060507600,7.366507568359375,-0.03914952260553837,0.010291823042184114,-0.047402387166023255
1684131465070478600,7.376478515625,-0.04463642958402633,0.0028192952044308185,-0.06175123051404953
1684131465080449800,7.38644970703125,-0.058733928519487374,-0.0028398996010422705,-0.0614735826164484
1684131465090420700,7.396420654296875,-0.0676999097853899,0.0003023439474403858,-0.07419803963303566
1684131465100391700,7.4063916015625,-0.06884732625484466,-0.006218436123430728,-0.0709983668088913
1684131465110363000,7.41636279296875,-0.06578033989965916,-0.008345949671417474,-0.07697919478416443
1684131465120333600,7.42633349609375,-0.0638958413273096,-0.026332857260853052,-0.07015899337530136
1684131465130304800,7.4363046875,-0.06295242299735546,-0.046373628640174865,-0.07266191610693931
1684131465140275700,7.446275634765625,-0.06021335342228412,-0.07657265980988741,-0.07080664362907409
1684131465150248000,7.456248046875,-0.048073710556328295,-0.08947802635133266,-0.053338206955790515
1684131465160218600,7.466218505859375,-0.04016016095280647,-0.09857260243296623,-0.048398996987938876
1684131465170189600,7.476189453125,-0.04160860619544983,-0.09956570512354374,-0.04644494031071662
1684131465180160800,7.486160888671875,-0.03345627939999103,-0.08174465562030672,-0.05967676232755184
1684131465190131700,7.496131591796875,-0.02092266878038645,-0.07202829437851906,-0.06155073950588703
1684131465200103000,7.50610302734375,-0.024275778600573537,-0.05396437603011727,-0.056905544048547745
1684131465210073600,7.516073486328125,-0.008463292440772057,-0.03920271409749985,-0.04981763161420822
1684131465220044500,7.52604443359375,0.002521627432107925,-0.03268368759229779,-0.040464112335443496
1684131465230015700,7.536015625,-0.017959142799675462,-0.02837707643955946,-0.04960837277770042
1684131465239986700,7.545986572265625,-0.006916647520661354,-0.02745835415944457,-0.04170797491669655
1684131465249958000,7.5559580078125,-0.012957681250572204,-0.01686521008312702,-0.0239244809448719
1684131465259928600,7.565928466796875,-0.017794015365839005,0.000727583622187376,-0.010454173997044562
1684131465269899500,7.5758994140625,-0.023882979890704155,0.0069321373507380485,0.009524784192442893
1684131465279871700,7.585871826171875,-0.006781622964143753,0.02822451622635126,0.006631400838494301
1684131465289842700,7.5958427734375,0.009932780471444129,0.04973199915736913,0.018675474375486372
1684131465299813600,7.605813720703125,-0.007566343601047992,0.06372662224024533,0.02092120747566223
1684131465309784600,7.61578466796875,-0.004164718464016914,0.06637012248635292,0.024731705674529075
1684131465319755800,7.625755859375,0.009063596421480179,0.06329553734660148,0.03334346667528152
1684131465329726700,7.635726806640625,0.014387421792745589,0.050284956865012644,0.033308979883790016
1684131465339697700,7.64569775390625,0.014959084200859068,0.042810090939700604,0.0380500369310379
1684131465349668900,7.6556689453125,0.02218202119171619,0.03853460557758808,0.042611645758152
1684131465359639600,7.6656396484375,0.010392799198627472,0.03805222888812423,0.03742226042151451
1684131465369610800,7.67561083984375,0.003429389926791191,0.030138971545547247,0.021937106519937515
1684131465379581700,7.685581787109375,0.0024509002834558484,0.02837283865585923,0.013863105657696722
1684131465389553000,7.695552978515625,0.003971533979475498,0.01981485366895795,-0.0000046761751174926755
1684131465399523800,7.70552392578125,-0.0021568857729434964,-0.0005617255359888076,0.00003039513826370239
1684131465409494500,7.71549462890625,-0.005003799636662006,-0.012811112386733292,-0.009386252504587174
1684131465419466800,7.725466796875,-0.003267477363348007,-0.026965017684549092,-0.026601006677746772
1684131465429437700,7.735437744140625,-0.01825286504924297,-0.034463995137810705,-0.03712532330155372
1684131465439409000,7.745408935546875,-0.0015489830076694487,-0.044941550010442734,-0.04354688078165054
1684131465449379600,7.755379638671875,-0.006033434945344925,-0.05527326667159795,-0.03834405144155025
1684131465459350800,7.765350830078125,-0.013158756780624389,-0.05216989382877946,-0.042324060988426206
1684131465469321700,7.77532177734375,-0.0070399816393852226,-0.05044526199325919,-0.05054068519175052
1684131465479292700,7.785292724609375,-0.010956570561230183,-0.04533551776409149,-0.028990532162785528
1684131465489263900,7.795263916015625,0.006101824006438255,-0.03152984138205647,-0.019735797083377835
1684131465499234600,7.805234619140625,-0.00035480478703975673,-0.02291340420618653,-0.01796937193274498
1684131465509205800,7.815205810546875,-0.00410392818748951,-0.01250102352425456,-0.014084639453887939
1684131465519176700,7.8251767578125,-0.009296528394520283,-0.005156505980342626,-0.007241057169437408
1684131465529147600,7.835147705078125,0.003003273469209671,-0.013916004888713359,-0.0028191490739583967
1684131465539118800,7.845118896484375,-0.005781213749945164,-0.020207652378827334,0.0003092120796442032
1684131465549090600,7.855090576171875,0.0090299864128232,-0.03406666638329625,0.006796236011385917
1684131465559061800,7.865061767578125,0.009508125318586826,-0.05037248901799321,-0.0032756606698036194
1684131465569032700,7.87503271484375,-0.0033259295523166655,-0.04649520919322967,-0.014050152662396431
1684131465579004000,7.88500390625,-0.016222236004471778,-0.04138941048681736,-0.01516600494980812
1684131465588974600,7.894974609375,-0.016894143916666507,-0.02809767497628927,-0.014141922599077223
1684131465598945500,7.904945556640625,-0.014984218642115592,-0.01132043543756008,0.00673076955974102
1684131465608916700,7.914916748046875,0.00009936872124671936,0.01389934601485729,-0.0014414309799671173
1684131465618887700,7.9248876953125,-0.0009565700724720954,0.027696546829491853,-0.005721884778141975
1684131465628859000,7.93485888671875,0.004441197317838669,0.03699059100598097,0.002605214062333107
1684131465638829800,7.944829833984375,0.0058317748934030526,0.033509324761480094,0.01182020165324211
1684131465648800500,7.954800537109375,-0.00002221183180809021,0.014150252036005258,0.013893500795960426
1684131465658771700,7.964771728515625,-0.0038251112461090086,0.008219108421355486,-0.00206043966114521
1684131465668742700,7.97474267578125,-0.011318097350001334,-0.0028625498242676258,-0.004715922605991363
1684131465678713900,7.9847138671875,-0.01073532902598381,-0.0034942718565464017,-0.012466098341345787
1684131465688685600,7.994685546875,-0.003014379385113716,-0.00022927871122956273,-0.006290624576807022
1684131465698656800,8.00465673828125,-0.02349193474650383,0.011511427965015173,-0.004953238493204117
1684131465708627700,8.014627685546875,-0.02870499321967363,0.014312456860393286,-0.007347440153360366
1684131465718599000,8.024598876953124,-0.019258534960448742,0.007478373056650161,-0.01371989779472351
1684131465728569900,8.03456982421875,-0.010691489884257315,0.0008591010473668574,-0.009296236133575438
1684131465738540800,8.044540771484375,-0.0006000117197632789,0.0025666356176137924,-0.006153261932730674
1684131465748511700,8.05451171875,-0.014195114091038703,-0.0027028292179107666,-0.011281856992840766
1684131465758482700,8.064482666015625,-0.005426408962905406,-0.006698036333918571,-0.019610124877095222
1684131465768454000,8.074453857421876,-0.014296236377954482,0.0031793606884777544,-0.01596679993867874
1684131465778424800,8.0844248046875,-0.00931406405121088,0.009277531433105468,-0.01411503459215164
1684131465788395800,8.094395751953124,-0.011296470040082931,0.017161270420253276,-0.008307225096225739
1684131465798366700,8.10436669921875,-0.0189139593064785,0.014364187047630548,-0.005777998879551887
1684131465808337700,8.114337646484374,-0.017881109127402303,-0.010463087955862283,-0.0053343467652797695
1684131465818310000,8.124309814453126,-0.01892740330994129,-0.01418956113308668,-0.017750760746002195
1684131465828280600,8.134280517578125,-0.013286182552576064,-0.028701924479752776,-0.02133329540789127
1684131465838251800,8.144251708984376,-0.012127660167217254,-0.03134878572672605,-0.022215338939428328
1684131465848222700,8.15422265625,-0.01848375119566917,-0.03316094971522689,-0.031083705049753187
1684131465858194000,8.16419384765625,-0.0035842882275581357,-0.034678806932270524,-0.027158056038618088
1684131465868164900,8.174164794921875,0.0020171850413084028,-0.03814692143425345,-0.0289613060683012
1684131465878135800,8.1841357421875,0.003464461240172386,-0.029381723437458276,-0.035242578294873234
1684131465888106800,8.194106689453125,-0.0006897358298301697,-0.017604191882163285,-0.017203648257255552
1684131465898077700,8.20407763671875,-0.004232523003220558,-0.0050930853553116315,-0.0035018706411123275
1684131465908049000,8.214048828125,-0.007419920867681503,-0.002892068179696798,-0.0016185411125421523
1684131465918019800,8.224019775390625,-0.013281506377458572,-0.0009003098405897617,-0.00045651159584522244
1684131465927991000,8.233990966796876,0.001609188762307167,-0.004835603462904691,0.01378828685581684
1684131465937961700,8.243961669921875,-0.010089432337880134,-0.017441694796830415,0.005135024800896644
1684131465947934000,8.253933837890624,-0.0038160511568188665,-0.013554624230414628,0.002557283267378807
1684131465957905000,8.26390478515625,-0.0010158990442752838,-0.011081219854205846,-0.0053331777215003965
1684131465967875800,8.273875732421875,0.0030523733079433437,-0.008279606436938047,-0.005250175613164902
1684131465977846800,8.2838466796875,0.0003933832317590713,0.003950929582864046,-0.003925064489245415
1684131465987817700,8.293817626953125,-0.004051905739307403,0.01897869510576129,0.00543020835518837
1684131465997789000,8.303788818359376,0.017861527644097805,0.013578005106002091,0.023336451923847198
1684131466007760000,8.313759765625,0.046968379662930965,0.008562515031546354,0.04927461077868938
1684131466017730800,8.323730712890624,0.08893851264715194,-0.006378887382149696,0.08448445584774017
1684131466027701800,8.33370166015625,0.09223258575648069,-0.01897095019072294,0.1101852988153696
1684131466037672700,8.343672607421874,0.07284253337085246,-0.05226283280923962,0.10914192724227904
1684131466047644000,8.353643798828125,0.09318331061005591,-0.0720360392935574,0.06107727677524089
1684131466057614800,8.36361474609375,0.04932663322687149,-0.06042173547595739,0.0013034838140010834
1684131466067585800,8.373585693359376,-0.024226094239950178,-0.024336130485683678,-0.044109190839529036
1684131466077557800,8.383557861328125,-0.07175678396075963,-0.01080824813172221,-0.09228022429049014
1684131466087528700,8.39352880859375,-0.08743219973742962,0.007950374482572077,-0.12411153283715247
1684131466097500000,8.4035,-0.08291150744259357,0.024058044196665285,-0.1026432128727436
1684131466107470800,8.413470947265624,-0.05596680189371109,0.023642449133098126,-0.06992109296619892
1684131466117441800,8.42344189453125,-0.055280573195219035,0.03358955039083957,-0.039295068556070324
1684131466127412700,8.433412841796875,-0.063124856954813,0.03752688983976841,-0.02450608022511005
1684131466137383700,8.4433837890625,-0.07897066086232661,0.027559476446360347,-0.027734394621849057
1684131466147355000,8.45335498046875,-0.09012216947376728,0.02948167668059468,-0.04501403072476387
1684131466157325800,8.463325927734376,-0.09004092093110085,0.01757818065807223,-0.05013444247841835
1684131466167296800,8.473296875,-0.05696896467357874,0.022563275594264267,-0.06337444780170917
1684131466177267700,8.483267822265624,-0.0326736045897007,0.03425312886610627,-0.031028175470232962
1684131466187238700,8.49323876953125,-0.016694237430393694,0.03180675862729549,-0.015638883158564567
1684131466197209900,8.5032099609375,-0.02025076086819172,0.021303192530572414,-0.028753216275572775
1684131466207181600,8.513181640625,-0.03304243790209293,0.00932122444435954,-0.007157470539212226
1684131466217152800,8.52315283203125,-0.0421761769503355,-0.010167758271098136,-0.02152151145637035
1684131466227123700,8.533123779296876,-0.04408522544205189,-0.030445114885270595,-0.0424725295484066
1684131466237095000,8.543094970703125,-0.0378495459228754,-0.035922377252578734,-0.043268648362159726
1684131466247065900,8.55306591796875,-0.026197686573863028,-0.054371495526283974,-0.06818097130060195
1684131466257036800,8.563036865234375,-0.023472645524144173,-0.05354352026954293,-0.05864508119225502
1684131466267007700,8.5730078125,-0.010939327165484427,-0.04246273880675435,-0.05249707995653152
1684131466276978700,8.582978759765625,-0.013580781584978103,-0.03762830438762903,-0.04622282199263572
1684131466286950000,8.592949951171875,-0.013970657685399054,-0.04171820404976606,-0.028999884513020515
1684131466296920800,8.6029208984375,-0.025741759499907493,-0.043498511595278976,-0.013564999493956564
1684131466306891800,8.612891845703125,-0.010340484489500522,-0.05786445220857858,-0.0020808979272842407
1684131466316862700,8.62286279296875,-0.000597089110314846,-0.06089768242463469,0.01809212152957916
1684131466326833700,8.632833740234375,-0.004374561822414398,-0.0525732139326632,0.010213935500383376
1684131466336804900,8.642804931640624,0.011164368093013763,-0.05271086883768439,-0.00976326912343502
1684131466346776800,8.65277685546875,0.008192366544902324,-0.04535422246456146,-0.020097616133093833
1684131466356747800,8.662747802734375,0.007597615522146224,-0.022960019826889038,-0.02144669265449047
1684131466366718700,8.67271875,0.019590251132845876,-0.014747195015847682,-0.025101123508810996
1684131466376690000,8.68268994140625,0.016506313642859458,-0.00440671052634716,-0.014503157126903534
1684131466386660900,8.692660888671876,0.017689385947585106,0.017824995025992392,-0.00255669874548912
1684131466396631800,8.7026318359375,0.005934650745987892,0.022505261796712875,0.006653612670302391
1684131466406602800,8.712602783203126,0.0007326981887221336,0.022616467086225747,0.014100421544909477
1684131466416573700,8.72257373046875,-0.0012815642431378365,-0.0009635843351483344,0.02693827580809593
1684131466426545000,8.732544921875,0.011359598404169082,-0.023207710977643726,0.027843700215220448
1684131466436515800,8.742515869140625,0.005763970354199409,-0.035244331860542294,0.03405249172747135
1684131466446486800,8.75248681640625,0.016946458625793456,-0.05490720983818173,0.027269699719548224
1684131466456457700,8.762457763671875,0.01566314081698656,-0.045036680947989224,0.002998597294092178
1684131466466429700,8.7724296875,0.013693009787797927,-0.014320640166848897,-0.003229483440518379
1684131466476401000,8.78240087890625,0.025818331867456433,0.01592588340640068,0.0014028525352478027
1684131466486371800,8.792371826171875,0.01996609870791435,0.051846653223782777,-0.009811784440279006
1684131466496342800,8.8023427734375,0.01122632741332054,0.07797185908332467,0.0004699555993080139
1684131466506313700,8.812313720703125,0.004416647398471832,0.06743877463117241,0.017471943804621696
1684131466516284700,8.82228466796875,-0.002848082907497883,0.046874125508219004,0.023010873231291768
1684131466526255900,8.832255859375,-0.0067681789606809616,0.020047201120108365,0.024886019453406332
1684131466536226800,8.842226806640625,0.003109656453132629,-0.0010144377395510673,0.022799860829114914
1684131466546198000,8.852197998046876,0.01253653322905302,-0.01825461861491203,0.023092121773958203
1684131466556168700,8.862168701171875,0.014487959557771681,-0.01531418124884367,0.03121171534359455
1684131466566139600,8.8721396484375,0.017414076137542724,0.0054128188289701935,0.02118658041357994
1684131466576110800,8.88211083984375,0.011909048980474471,0.026318974865972993,0.02158522434234619
1684131466586081800,8.892081787109374,0.01160451307594776,0.03435220532640815,0.027263269978761672
1684131466596053800,8.9020537109375,0.008375029635429382,0.0253556827917695,0.025980828952789307
1684131466606024700,8.912024658203125,-0.003542202651500702,0.012446516858041285,0.01630874524414539
1684131466615996000,8.921995849609376,0.0004401449829339981,-0.006089987438172102,0.0052495910912752144
1684131466625966800,8.931966796875,-0.004274608579277992,-0.01995718474909663,0.0009217910200357436
1684131466635937800,8.941937744140626,-0.009182254365086556,-0.02878112719580531,-0.015889058527350425
1684131466645908700,8.95190869140625,-0.01926467244029045,-0.019111673835664988,-0.03242752087414264
1684131466655879700,8.961879638671874,-0.031678456072509284,0.004793079495429993,-0.04253039721548557
1684131466665851000,8.971850830078125,-0.03597118483036756,0.009112988521158695,-0.046700376376509665
1684131466675821800,8.98182177734375,-0.0437403575271368,0.012500877393782138,-0.05842296287417412
1684131466685792800,8.991792724609375,-0.04534545463621616,0.005470832626521587,-0.05683306333422661
1684131466695763700,9.001763671875,-0.034237785166502,-0.018614245707541704,-0.051204117536544795
1684131466705734700,9.011734619140626,-0.03771159875690937,-0.022916619076579808,-0.03794131585955619
1684131466715705900,9.021705810546875,-0.043105859015882014,-0.02389686228558421,-0.023389058893918988
1684131466725676300,9.03167626953125,-0.03288403246998787,-0.04316664929240942,-0.02358428920507431
1684131466735648300,9.041648193359375,-0.020673662455379962,-0.03467471527904272,-0.018984686455130576
1684131466745619200,9.051619140625,-0.012732055801153183,-0.036123306652158495,-0.025239070674777028
1684131466755590100,9.061590087890625,-0.004737549915909767,-0.031045126605033873,-0.022097850039601324
1684131466765561000,9.07156103515625,-0.0002592354580760002,-0.0254211492434144,-0.02084112797677517
1684131466775532300,9.0815322265625,0.0036480011135339736,-0.01983195093423128,-0.01803717647194862
1684131466785503200,9.091503173828125,0.0006476502537727355,-0.022207009502500295,-0.019741057780385016
1684131466795474200,9.10147412109375,-0.00006254384219646453,-0.024169834008067846,-0.02072597716450691
1684131466805445000,9.111445068359375,0.0030611411362886426,-0.014294190551340579,-0.006298807883262634
1684131466815416000,9.121416015625,-0.01080196452140808,-0.013520721960812805,0.0035749358773231503
1684131466825387300,9.13138720703125,-0.0071443187966942785,-0.01136836623251438,-0.004386836782097816
1684131466835358200,9.141358154296874,-0.007351531806588173,-0.005458849927783012,-0.011584639331698418
1684131466845329400,9.151329345703125,-0.003321837899088859,0.002540624393522739,-0.011605682119727134
1684131466855301000,9.161301025390625,-0.005167173504829406,0.009463847785443067,-0.0112672439455986
1684131466865272300,9.171272216796876,-0.005275894576311111,0.01478957285284996,-0.0034364041894674297
1684131466875243300,9.1812431640625,-0.012783493727445602,0.021931115170568227,-0.004913491004705429
1684131466885214200,9.191214111328126,-0.003749415661394596,0.036434126166999335,0.007976970228552817
1684131466895185200,9.20118505859375,-0.0060243748560547825,0.02878565724045038,0.009300327786803245
1684131466905156000,9.211156005859374,-0.01005903719961643,0.029269056843221185,0.014212649747729301
1684131466915127300,9.221127197265625,-0.008686872063577175,0.013361147484928369,0.0016734861701726913
1684131466925098200,9.23109814453125,0.0008306056052446365,0.0024818799436092374,-0.006206453424692154
1684131466935069400,9.2410693359375,-0.01046820252239704,-0.0023225977286696433,-0.007445639830827713
1684131466945040100,9.2510400390625,-0.0017149872243404387,-0.0021590777300298214,0.002616319978237152
1684131466955011000,9.261010986328126,-0.007754267388582229,-0.0038631051689386364,0.0006318681627511978
1684131466964982300,9.270982177734375,0.008676350669562816,-0.004901946697384119,0.0016197101563215255
1684131466974953200,9.280953125,0.008459785309433936,-0.008685703019797802,-0.00014729951620101928
1684131466984924400,9.29092431640625,0.013274492114782332,-0.013389789057523012,0.00032850130200386043
1684131466994896100,9.300896240234374,0.003357493734359741,-0.019783727878332137,-0.007092588609457016
1684131467004867300,9.310867431640625,0.0034673838496208187,-0.02487885906025767,0.00002104278802871704
1684131467014838300,9.32083837890625,0.016166998685896397,-0.021146540664136407,0.006923661783337593
1684131467024809200,9.330809326171876,0.021155016231536865,-0.027467998770624398,-0.002186111867427826
1684131467034780200,9.3407802734375,0.0035503859579563138,-0.02822451622635126,-0.0030126258194446563
1684131467044751000,9.350751220703126,-0.00022591771036386488,-0.02206365550905466,-0.0020920038431882855
1684131467054722300,9.360722412109375,0.0022045243069529533,-0.02048106249272823,-0.010611410385370255
1684131467064693200,9.370693359375,-0.0018634557843208311,-0.016940028885006904,-0.008685995280742645
1684131467074664200,9.380664306640625,-0.013631342728435993,-0.01464753403365612,-0.006028174248337745
1684131467084635100,9.39063525390625,-0.012592355069518089,-0.011891074932366609,-0.012480126866698265
1684131467094606000,9.400606201171875,-0.002474281159043312,-0.01062441599741578,-0.011623802298307418
1684131467104577300,9.410577392578125,-0.013126608076691627,-0.013168839783221482,-0.01869827072918415
1684131467114549200,9.42054931640625,-0.016342647513747213,-0.010838497139513492,-0.018894670084118843
1684131467124520200,9.430520263671875,-0.017434534403681753,-0.002872632826864719,-0.025789105772972106
1684131467134491100,9.4404912109375,-0.018485504761338232,0.0013315408647060394,-0.02645955238044262
1684131467144462000,9.450462158203125,-0.016315174984931943,0.0007569558471441269,-0.023603578427433967
1684131467154433300,9.460433349609374,-0.022323475489020347,-0.0031612405098974702,-0.01983458128273487
1684131467164404200,9.470404296875,-0.029964930152893064,-0.012903905236721039,-0.03345978653132915
1684131467174375200,9.480375244140625,-0.011121405734121799,-0.022968057002872227,-0.02374678629040718
1684131467184346000,9.49034619140625,-0.010023965886235237,-0.019194968204945324,-0.01702595360279083
1684131467194317000,9.500317138671875,-0.011387070932984352,-0.003231967658549547,-0.022623335218429564
1684131467204288300,9.510288330078126,-0.007077391040325165,-0.006207768598943948,-0.0006692775636911391
1684131467214259200,9.52025927734375,-0.00640226825773716,0.0017798691540956495,-0.0036111762344837187
1684131467224230400,9.53023046875,-0.014988602556288241,0.013148673778027295,-0.0025157822132110593
1684131467234201000,9.540201171875,-0.005049684605002403,0.0019983342103660107,-0.007437456524372101
1684131467244173300,9.55017333984375,-0.007142857491970062,-0.007927724259346723,-0.013102642679214477
1684131467254144300,9.560144287109376,-0.0037704584494233128,-0.017139496979862452,-0.019082886132597923
1684131467264115200,9.570115234375,-0.021474749705195424,-0.017720073346793652,-0.00993453403711319
1684131467274086100,9.580086181640626,-0.015664602121710777,-0.02007540430128574,-0.02680675838291645
1684131467284057000,9.59005712890625,-0.006356091028451919,-0.021833500014990567,-0.02259820077717304
1684131467294028300,9.6000283203125,0.0016594576448202133,-0.013189736440777778,-0.018149404674768447
1684131467303999200,9.609999267578125,-0.0037540918365120885,-0.013629150771349668,-0.015091186147928237
1684131467313970400,9.619970458984374,0.003202595433592796,-0.003163724727928638,-0.00682137045264244
1684131467323941000,9.629941162109375,0.0008382043898105621,0.0011712357364594935,-0.022364392021298408
1684131467333912000,9.639912109375,-0.013669628912210463,0.005653349586576223,-0.04527180487811565
1684131467343883300,9.64988330078125,-0.023445172995328903,0.011036065538227557,-0.03133797207176685
1684131467353854200,9.659854248046875,-0.03771335232257843,-0.004245820876210928,-0.0338280353218317
1684131467363825400,9.669825439453126,-0.026660627910494804,-0.02063011557459831,-0.023414777857065198
1684131467373797000,9.679797119140625,-0.015125672939419745,-0.04642842756733298,-0.011510989573597908
1684131467383768300,9.689768310546874,0.0001543137788772583,-0.06991188674643635,-0.0018763152658939361
1684131467393739300,9.6997392578125,0.003816635678708553,-0.07125584870129824,0.0033709377378225323
1684131467403710200,9.709710205078125,0.0056014732688665385,-0.037901422240585084,0.0036351416319608688
1684131467413681200,9.71968115234375,0.0003007365122437477,-0.005452274056524038,0.007580664387345314
1684131467423652000,9.729652099609375,-0.008306056052446364,0.021293840180337427,0.0029816461592912674
1684131467433623300,9.739623291015626,-0.014521861827373504,0.022159809359908102,-0.0056266077101230615
1684131467443594200,9.74959423828125,-0.02148410205543041,0.020863193678110837,-0.0010088847815990446
1684131467453565200,9.759565185546874,-0.009648702833056449,0.0014544365920126437,-0.013597148197889328
1684131467463536400,9.769536376953125,-0.017001988205313682,-0.016394962222874163,0.001450198808312416
1684131467473507000,9.779507080078124,-0.008915127861499787,-0.026765549589693544,-0.010123334607481957
1684131467483478300,9.789478271484375,-0.009013327538967133,-0.02026420487165451,-0.010789689561724661
1684131467493449200,9.79944921875,-0.0069864978864789,-0.00808189190775156,-0.004857961425185203
1684131467503421200,9.809421142578126,0.0076440850123763076,0.004601794707030058,0.0018920973569154739
1684131467513392000,9.81939208984375,-0.0035942250996828075,0.009630290393531322,-0.006171382111310958
1684131467523363000,9.829363037109376,-0.003269230929017067,0.01569938117414713,-0.006661211454868316
1684131467533334300,9.839334228515625,-0.001287117201089859,0.00587678307890892,0.0028325930774211884
1684131467543305200,9.84930517578125,-0.0005061959564685822,-0.004412994136661291,-0.0025350714355707165
1684131467553276400,9.8592763671875,0.006555412992835044,-0.020112813702225684,0.0018219547301530836
1684131467563247000,9.8692470703125,0.014439444240927695,-0.027749299930036067,0.007605798828601837
1684131467573218000,9.879218017578125,0.013657353952527046,-0.0322442732617259,0.008685995280742645
1684131467583189200,9.889189208984375,0.0015334931775927542,-0.015098054280132054,0.005320902761816978
1684131467593160200,9.89916015625,-0.011324527090787887,0.007942775698006152,0.005113982012867928
1684131467603131400,9.90913134765625,-0.012033552142977714,0.022709552197158336,0.0009755670338869094
1684131467613102000,9.91910205078125,-0.020797873356938362,0.022105741085112093,-0.014548749834299086
1684131467623074300,9.92907421875,-0.032354747898876664,0.003303425459563732,-0.031232758131623267
1684131467633045200,9.939045166015624,-0.015740589967370034,0.0040790860071778295,-0.01992518217563629
1684131467643016200,9.94901611328125,-0.009127309307456016,-0.010236731854081154,0.0007552022814750671
1684131467652987100,9.958987060546875,-0.019962591576576233,-0.027520167349278927,-0.012651391780376433
1684131467662958000,9.9689580078125,-0.03482873679697513,-0.024240707287192343,-0.01862462097108364
1684131467672929300,9.97892919921875,-0.022388941940665243,-0.023686288274824618,-0.007060439905524254
1684131467682900200,9.988900146484376,0.00400894338041544,-0.021237579948455095,-0.006058569386601448
1684131467692871400,9.998871337890625,0.004361994601786137,-0.032157325630635024,-0.0057113633841276166
1684131467702842000,10.008842041015624,0.0024900632500648497,-0.027806583075225353,-0.018638649496436118
1684131467712813000,10.01881298828125,0.00990180081129074,-0.022460838133096694,-0.010521978536248207
1684131467722783700,10.02878369140625,-0.007294248661398888,-0.016501491337269542,-0.012688216659426689
1684131467732755000,10.0387548828125,-0.011160276439785956,-0.0015491291381418703,-0.00040799627900123595
1684131467742726000,10.048725830078125,-0.009358195453882216,0.006050386080145836,-0.018367431339621543
1684131467752697900,10.05869775390625,-0.004435352098941803,0.010781213994324206,-0.015663433077931402
1684131467762668800,10.068668701171875,-0.005932604919373989,0.013564414972066879,-0.010779168167710304
1684131467772640000,10.078639892578124,-0.01828910540640354,0.005361088641732931,-0.018490765458345413
1684131467782611000,10.08861083984375,-0.008855506628751755,0.002313099247962236,-0.004025602254271507
1684131467792582100,10.09858203125,-0.009585574468970298,-0.011716010626405477,0.006197685596346855
1684131467802552800,10.108552734375,-0.005256020832061767,-0.025229864455014465,0.005842880809307098
1684131467812523800,10.118523681640625,-0.013660276561975479,-0.018950784185528754,-0.0033259295523166655
1684131467822495000,10.128494873046876,-0.008876257155835628,-0.017238427309691905,-0.013366846573352813
1684131467832466000,10.1384658203125,-0.008695055370032788,-0.008576689687371254,-0.01170388179719448
1684131467842437000,10.14843701171875,-0.012876140446960926,-0.0019154782325029372,-0.009733458507061005
1684131467852407800,10.15840771484375,-0.009289806392788886,0.0006274842485785484,-0.018678981506824493
1684131467862378800,10.168378662109374,-0.015990765336155892,-0.0002479834116995335,-0.015479893204569816
1684131467872350000,10.178349853515625,-0.015986089161038396,-0.011792144602537155,-0.008114332872629165
1684131467882322000,10.188322021484375,-0.012789046685397624,-0.028825112468004226,0.0005886135429143905
1684131467892292900,10.19829296875,-0.003245265531539917,-0.024832389570027587,-0.013918050715327262
1684131467902263800,10.208263916015625,-0.015863339564204215,-0.022007395277172326,-0.01917933224439621
1684131467912235000,10.218235107421876,-0.01725304035693407,-0.028103081803768873,-0.017243980267643927
1684131467922206000,10.2282060546875,-0.007381926944851875,-0.02028290957212448,-0.021351415586471557
1684131467932177000,10.238177001953124,-0.005721300256252289,-0.012727087365090846,-0.018140052324533463
1684131467942148000,10.248148193359375,-0.010229425330460071,-0.010631722521036863,-0.027902736926078794
1684131467952118800,10.258118896484374,-0.02458206807076931,-0.007222936990857124,-0.029802433067560193
1684131467962090000,10.268090087890625,-0.021719664376974104,0.007600830392539501,-0.016503975555300712
1684131467972061000,10.27806103515625,-0.018813421541452408,0.010122603955119847,-0.021042203506827353
1684131467982032000,10.288031982421876,-0.018851999986171722,0.014236469014734028,-0.015808979028463364
1684131467992003000,10.298003173828125,-0.01826952392309904,0.014925766453146933,-0.015231471401453017
1684131468001973800,10.307973876953126,-0.006886836904287338,0.00703968937844038,-0.014427169281244278
1684131468011946000,10.317946044921875,-0.0069654550984501835,0.006959902140498161,-0.01333294430375099
1684131468021917000,10.3279169921875,-0.011124036082625388,-0.00387318817153573,-0.014231938970088958
1684131468031888100,10.33788818359375,-0.012180851659178734,-0.00591229278370738,-0.0028115502893924713
1684131468041858800,10.34785888671875,-0.003763736447691917,-0.012701076140999794,-0.007818564796447753
1684131468051829800,10.357829833984376,-0.00685059654712677,-0.014388883097469806,-0.006111176356673241
1684131468061801000,10.367801025390625,0.0014914076015353202,-0.004963613756746053,-0.006238602128624916
1684131468071772000,10.37777197265625,0.001031096613407135,-0.007493278364837169,-0.003956044149398804
1684131468081743000,10.3877431640625,0.013006781089305877,-0.004401595959812403,0.0008972411006689071
1684131468091714800,10.39771484375,0.0012999766826629637,-0.009520108017325401,-0.008884732723236083
1684131468101686000,10.40768603515625,0.00039922845065593716,-0.0077661039568483825,-0.005004676419496536
1684131468111657000,10.417656982421875,-0.009248889860510826,-0.01181479482576251,-0.004321370330452919
1684131468121628000,10.4276279296875,-0.002587678405642509,-0.017811258761584757,-0.007308277186751365
1684131468131598800,10.437598876953125,-0.010094108512997626,-0.021725801856815812,-0.015029811349511146
1684131468141569800,10.44756982421875,-0.01897884123623371,-0.017519728469103574,-0.015200491741299628
1684131468151541000,10.457541015625,-0.017596154706180096,-0.013907675451785326,-0.0034597850650548933
1684131468161512000,10.467511962890624,-0.012610475248098373,-0.007854805153608322,0.0035801965743303297
1684131468171483100,10.477483154296875,-0.014139876772463322,0.009314794703572988,-0.001007131215929985
1684131468181453800,10.487453857421874,0.004561316566169262,0.007235211950540542,0.00023790040910243987
1684131468191424800,10.4974248046875,-0.011237433329224587,0.01046191891208291,0.0028770167410373687
1684131468201396000,10.50739599609375,-0.012358546313643455,0.0014430384151637554,-0.00861468361020088
1684131468211367000,10.517366943359375,-0.009145137225091457,-0.019658640193939207,-0.010823007309436798
1684131468221339000,10.5273388671875,-0.01823474487066269,-0.02987476765140891,-0.012830255478620529
1684131468231309800,10.537309814453126,-0.011072598156332969,-0.03415565984100103,-0.01958849756717682
1684131468241281000,10.547281005859375,-0.0012798106774687765,-0.03168473968282342,-0.028352234259247776
1684131468251252000,10.557251953125,0.004461071062088012,-0.03214066675677895,-0.03628711891174316
1684131468261223000,10.567222900390625,0.00407119496166706,-0.013580197063088417,-0.018738602739572525
1684131468271193900,10.57719384765625,0.0015279402196407318,0.008758768256008624,-0.0064484454870223995
1684131468281164800,10.587164794921875,-0.0029880759000778198,0.02809329106211662,0.007801613661646842
1684131468291136000,10.597135986328125,-0.004459902018308639,0.037745939417928455,0.002932546320557594
1684131468301107000,10.60710693359375,-0.008215747420489788,0.0380588047593832,0.009511924710869788
1684131468311078000,10.617077880859375,-0.01544832902252674,0.029003830035775897,0.015083587363362311
1684131468321049000,10.627049072265624,-0.024905016414821145,-0.004437544056028127,-0.009559855505824088
1684131468331019800,10.637019775390625,-0.014814122772216796,-0.03409545408636332,-0.0256891525298357
1684131468340991000,10.646990966796874,-0.023808453349769113,-0.03919920696616173,-0.031604514053463935
1684131468350963000,10.656962890625,-0.02107318316698074,-0.03731500065475702,-0.016477672070264817
1684131468360934100,10.66693408203125,-0.028332360514998434,-0.028409809665381907,-0.011786299383640288
1684131468370904800,10.67690478515625,-0.036531741322577,-0.0021375965505838392,-0.01343406659066677
1684131468380875800,10.686875732421875,-0.042538580521941184,0.01277531042098999,-0.030219197174906728
1684131468390847000,10.696846923828126,-0.02651215935051441,0.005039455471932888,-0.03529343169927597
1684131468400818000,10.70681787109375,-0.013942016112804411,-0.013357494223117827,-0.03686111940741539
1684131468410789000,10.7167890625,-0.004818213936686516,-0.03286927329227328,-0.018434066835045813
1684131468420759800,10.726759765625,-0.004580898049473763,-0.04724032847210764,0.005510287854075432
1684131468430730800,10.736730712890624,-0.009022095367312431,-0.0421498734652996,0.0013724573969841002
1684131468440702000,10.746701904296875,-0.005921499003469943,-0.021670126146823166,0.002389525485038757
1684131468450673000,10.7566728515625,-0.0023839725270867348,-0.004271247578412294,-0.008588380125164986
1684131468460644000,10.76664404296875,-0.003916881182789802,0.015104191759973764,-0.018602993661165235
1684131468470614800,10.77661474609375,-0.00343465062379837,0.017357377514243124,-0.014194529569149017
1684131468480587000,10.7865869140625,-0.016556874786317347,0.003846738556027412,0.0008645078748464583
1684131468490558000,10.796557861328125,-0.01393470958918333,0.0015511749647557735,0.0070651160806417465
1684131468500529000,10.80652880859375,-0.0036363106757402418,-0.010270780254155397,0.017303016978502273
1684131468510499800,10.816499755859375,0.007861234894394874,-0.008103373087197541,0.013306640818715096
1684131468520470800,10.826470703125,0.01184065991938114,0.0042826457552611824,0.0011123451560735701
1684131468530442000,10.83644189453125,-0.010174772533774376,0.022038228806853292,-0.0068108490586280815
1684131468540413000,10.846412841796875,-0.013990239168703554,0.03515577679425478,0.0018044190734624861
1684131468550383900,10.8563837890625,-0.011416881549358368,0.03485474802106619,-0.0016688099950551987
1684131468560355000,10.86635498046875,-0.011083704072237015,0.041954789284616704,0.006728431472182273
1684131468570325800,10.87632568359375,-0.013422376152873039,0.02825476523414254,0.00859773247539997
1684131468580297000,10.886296875,-0.011547814452648162,0.0021970716528594493,0.012885785058140755
1684131468590268000,10.896267822265624,-0.010885551151633262,-0.011606705033034086,0.0029933365970849987
1684131468600239000,10.906239013671875,-0.00989654011428356,-0.029450258629024027,-0.009088146340847016
1684131468610210000,10.9162099609375,-0.011334463962912558,-0.03222074625566602,-0.012665420305728911
1684131468620182000,10.92618212890625,-0.017020108383893964,-0.025393968975543975,-0.02374970889985561
1684131468630153000,10.936153076171875,-0.015543606090545654,-0.030197569864988325,-0.024614801296591757
1684131468640124000,10.9461240234375,-0.018450433447957038,-0.024294044909626243,-0.025831775870919227
1684131468650095000,10.95609521484375,-0.009185176974534987,-0.03753726510331035,-0.03846446295082569
1684131468660065800,10.966065673828124,-0.016133096416294575,-0.03571414132937789,-0.03519932367503643
1684131468670037000,10.976037109375,-0.015062544575333594,-0.04391410665884614,-0.030392800176143646
1684131468680008000,10.986008056640625,-0.021323358535766602,-0.023860329667478797,-0.035735914769768715
1684131468689979000,10.995978759765626,-0.01975011786967516,-0.019991963801532984,-0.02736731487512588
1684131468699950000,11.0059501953125,-0.034627076745033264,-0.018439619792997835,-0.024993571481108662
1684131468709920800,11.015920654296876,-0.033223639687895774,-0.008883417548984288,-0.023441665863990782
1684131468719892000,11.02589208984375,-0.01898059480190277,-0.011635638866573572,-0.023738602983951567
1684131468729863000,11.03586279296875,-0.01890869860947132,-0.029752894837409255,-0.03443593808710575
1684131468739833900,11.045833740234375,-0.02145136882960796,-0.02663637025207281,-0.03459083638787269
1684131468749805800,11.055805908203125,-0.01604044969677925,-0.014650456643104553,-0.026602760243415832
1684131468759776800,11.06577685546875,-0.014655132818222045,-0.00551014172360301,-0.024144845697283743
1684131468769748000,11.075748046875,-0.001123158811032772,0.007953004831075668,-0.015618424892425537
1684131468779719000,11.085718994140626,-0.007000234150886535,0.009565700724720955,-0.0032312370061874387
1684131468789690000,11.095690185546875,-0.009148644356429576,0.005899287171661854,0.005059621477127075
1684131468799660800,11.105660888671874,-0.016834522683918475,0.009963614001125097,0.007054594686627388
1684131468809631700,11.1156318359375,-0.008614391349256038,0.015098200410604477,0.011022329273819922
1684131468819603000,11.12560302734375,-0.00281856455206871,0.016314882723987102,0.01489712488055229
1684131468829574000,11.135573974609375,-0.009372808501124381,0.005286269839853048,0.01630932976603508
1684131468839545000,11.145545166015625,-0.0023497779965400696,0.000962123030424118,0.013161094868183135
1684131468849516000,11.15551611328125,0.006514496460556984,-0.003654430854320526,-0.0005108721315860748
1684131468859486700,11.16548681640625,0.007242810735106468,-0.0050488078221678735,-0.010153729745745658
1684131468869458000,11.1754580078125,-0.005027180512249469,-0.010617109473794697,-0.01806347995698452
1684131468879430000,11.185429931640625,-0.004647533544898033,-0.0069976038023829455,-0.0077723875671625135
1684131468889400800,11.19540087890625,0.005846972462534904,-0.010501374139636754,-0.009534136542677879
1684131468899371800,11.205371826171875,0.004187514817714691,-0.012561521539837122,0.006772270613908767
1684131468909343000,11.215343017578125,0.002934592147171497,-0.015406389576941728,-0.003477320721745491
1684131468919314000,11.22531396484375,-0.013768120850622654,-0.007019084981828927,-0.012053425887227057
1684131468929284900,11.235284912109375,-0.020121581530570982,-0.02179813644066453,-0.024206220495700835
1684131468939256000,11.245256103515626,-0.008873626807332039,-0.022010756278038023,-0.014081716844439505
1684131468949226800,11.255226806640625,-0.0018126023799180982,-0.010392799198627472,-0.00824701934158802
1684131468959198000,11.265197998046874,-0.017564298263192175,-0.007556845120340585,0.00931143370270729
1684131468969169000,11.2751689453125,-0.029986557462811467,-0.005337707766145467,-0.0009475099831819534
1684131468979139800,11.285139892578124,-0.031851182290911675,-0.000393090970814228,-0.011038695886731146
1684131468989111000,11.295111083984375,-0.020344576631486415,-0.00028948446586728096,-0.01023556281030178
1684131468999081700,11.305081787109375,-0.015453589719533919,0.0035401568248867987,-0.012666589349508284
1684131469009054000,11.315053955078126,-0.013561200101673603,-0.006097001700848341,-0.021086627170443534
1684131469019025000,11.32502490234375,-0.011622633254528045,-0.003031184389442205,-0.021972762355208397
1684131469028996000,11.33499609375,-0.009012743017077446,-0.00321267843618989,-0.015066051706671715
1684131469038966800,11.344966796875,-0.01140197624117136,-0.0007595861956477165,-0.021971008789539337
1684131469048938000,11.35493798828125,-0.013801730859279632,-0.0010533084452152251,-0.020330255845189094
1684131469058909000,11.364908935546875,-0.00799216779768467,0.0006223696820437908,-0.007922609692811965
1684131469068880000,11.3748798828125,-0.0016767010405659675,0.0010449790082871914,-0.006316928061842918
1684131469078851000,11.38485107421875,-0.006639291884005069,0.00987783541381359,-0.00027530981004238127
1684131469088821800,11.39482177734375,-0.008764321213960646,0.006454290705919265,0.002954173630475998
1684131469098793000,11.40479296875,-0.007181435936689376,-0.0020239070430397984,0.0016898527830839156
1684131469108764000,11.414763916015625,-0.0044528877556324,-0.019624445663392543,-0.002697568520903587
1684131469118734800,11.42473486328125,-0.015451251631975173,-0.030217151348292826,-0.012636194211244582
1684131469128706000,11.4347060546875,-0.008861644108593464,-0.027595570673048495,-0.014593758019804953
1684131469138677000,11.444677001953124,-0.014938625934720038,-0.03221417038440704,-0.017584172007441518
1684131469148649000,11.45464892578125,-0.00034486791491508483,-0.03029679245576262,-0.02221826154887676
1684131469158620000,11.464619873046875,-0.006221943254768848,-0.020678192500025033,-0.028547464570403098
1684131469168591000,11.474591064453126,0.002478372812271118,-0.00045358898639678955,-0.014976619857549667
1684131469178562000,11.48456201171875,0.0018219547301530836,0.00494827005714178,-0.013868950876593589
1684131469188532700,11.49453271484375,-0.006403437301516533,0.0127726800724864,-0.003940262058377266
1684131469198504000,11.50450390625,-0.007336626498401165,0.016615180844813584,0.002570142748951912
1684131469208475000,11.514474853515624,-0.0049801265001296995,0.006372896032780409,0.0008440496087074279
1684131469218446000,11.524446044921875,-0.011053308933973311,0.003977671459317207,-0.0050362406015396115
1684131469228417000,11.5344169921875,-0.006624678836762905,0.008980009791254996,-0.005008768072724342
1684131469238387700,11.5443876953125,-0.008357493978738785,0.0009309972397983073,-0.001600420933961868
1684131469248359000,11.55435888671875,-0.02057517051696777,-0.017326982375979422,0.00291442614197731
1684131469258329900,11.564329833984376,-0.013692717526853084,-0.028844547820836303,-0.0003454524368047714
1684131469268301000,11.574301025390625,-0.014497896429896354,-0.029866292084008452,-0.004032616516947746
1684131469278272800,11.584272705078124,-0.006905541604757309,-0.020611118613183498,-0.006673486414551734
1684131469288244000,11.594243896484375,-0.00788666159659624,-0.008335428277403115,-0.014075287103652953
1684131469298215000,11.60421484375,-0.0005196399599313736,-0.004675444465130568,-0.012277882292866707
1684131469308185900,11.614185791015625,-0.002567220139503479,0.0037498540528118607,-0.017182605469226835
1684131469318157000,11.624156982421875,-0.014853285738825796,-0.0010964169345796108,-0.013145897299051284
1684131469328127700,11.634127685546876,-0.010752572421729565,0.00478314262330532,-0.008032499808073043
1684131469338099000,11.644098876953125,-0.005762216788530349,-0.006119505793601274,-0.004497311419248581
1684131469348070000,11.65406982421875,-0.01822422347664833,-0.008539572547376155,0.0066571198016405105
1684131469358040800,11.664040771484375,-0.018943769922852516,-0.016715426348894835,-0.004462240105867385
1684131469368012000,11.674011962890624,-0.007260930913686752,-0.009973112481832504,-0.002985153290629387
1684131469377983000,11.68398291015625,-0.0019365210205316541,-0.008947422695904969,-0.0017886369824409484
1684131469387954000,11.693953857421874,0.0006803834795951843,0.012307839039713143,-0.002421089667081833
1684131469397924900,11.7039248046875,-0.005481354020535945,0.013279460550844668,-0.0008767828345298766
1684131469407897000,11.71389697265625,-0.01211129355430603,0.009156243140995501,-0.007315875971317291
1684131469417867800,11.72386767578125,-0.005735328781604767,0.011394523587077855,0.0014390928924083708
1684131469427839000,11.7338388671875,0.00040624271333217617,-0.0008420037820935248,-0.007347440153360366
1684131469437810000,11.743809814453124,-0.008228899163007735,-0.006438800875842571,-0.0028898762226104734
1684131469447780900,11.75378076171875,-0.010856325057148933,-0.00675298139154911,-0.011057985109090805
1684131469457752000,11.763751953125,-0.012706921359896659,0.0081280691370368,-0.020199322941899297
1684131469467723000,11.773722900390625,-0.012021861705183982,0.028246289666742086,-0.022612813824415205
1684131469477694000,11.78369384765625,-0.011857026532292366,0.023654139570891856,-0.017403554743528366
1684131469487665000,11.793664794921876,-0.02065115836262703,0.022707652501016855,-0.016693945169448852
1684131469497635800,11.8036357421875,-0.014416940148174762,0.015471856028586625,-0.022912089031934736
1684131469507607000,11.81360693359375,-0.007416413736343383,0.00036269583255052565,-0.010403905114531516
1684131469517578000,11.823577880859375,-0.009880173501372337,-0.009239245249330997,-0.00495440753698349
1684131469527550000,11.833550048828124,-0.0033837972193956375,-0.023511808490753173,-0.003737432962656021
1684131469537521000,11.84352099609375,-0.0044964346364140505,-0.034733167468011375,-0.005339607462286949
1684131469547492000,11.8534921875,0.0000716039314866066,-0.030787060190737247,-0.004538812473416328
1684131469557463000,11.863463134765626,-0.007950666743516922,-0.020173311717808246,-0.0078033672273159025
1684131469567433700,11.873433837890625,0.002463759765028953,-0.00880187674537301,-0.009702478846907616
1684131469577405000,11.883405029296876,-0.007011924588680267,-0.011533493666350841,-0.020731822383403778
1684131469587375900,11.8933759765625,-0.012057517540454863,-0.002362052956223488,-0.027315876948833463
1684131469597347000,11.90334716796875,-0.013218962535262106,-0.010237170245498419,-0.020852233892679213
1684131469607318000,11.913318115234375,-0.02157821007966995,-0.013158610650151966,-0.018401333609223365
1684131469617288700,11.923288818359374,-0.014904723665118217,-0.014427753803133964,-0.020583353823423384
1684131469627260000,11.933260009765625,-0.00971358476281166,-0.016922931619733572,-0.012098434072732926
1684131469637230800,11.94323095703125,-0.01601122360229492,-0.012286065599322318,-0.00874152486026287
1684131469647202000,11.9532021484375,-0.008684826236963272,0.004180938946455717,-0.010120411998033523
1684131469657173800,11.963173828125,-0.013376198923587799,-0.0023261048600077628,-0.005673953983187675
1684131469667145000,11.97314501953125,-0.0106225163012743,0.0020401275254786013,-0.004739888003468513
1684131469677116000,11.983115966796875,-0.0016559505134820937,0.0025946926683187484,-0.012907996889948843
1684131469687086800,11.9930869140625,-0.004817921675741672,-0.0014849778607487678,-0.005144961673021317
1684131469697058000,12.00305810546875,-0.012573650369048117,0.00027881694138050077,0.0024929858595132827
