time,seconds_elapsed,z,y,x
1684123512057457200,0.11745703125,-0.3270014188349247,-0.15756401284486055,0.09752864633798598
1684123512067428400,0.127428466796875,-0.3181944275230169,-0.05840455043464899,0.24749270557314157
1684123512077399300,0.1373994140625,-0.17320786443948744,-0.026440847679972648,0.122219435480237
1684123512087370500,0.14737060546875,-0.18641396749317646,0.254010124643147,0.18559826719611883
1684123512097341200,0.157341064453125,-0.2743582084059715,0.5022895966798067,0.2949509145796299
1684123512107311400,0.167311279296875,-0.7214069793790578,0.595921527840197,0.8381707798019051
1684123512117282300,0.1772822265625,-1.0143050530821085,0.346314898853004,1.1678390797585247
1684123512127253200,0.187253173828125,-0.708801180306077,0.09025894759595393,0.7787114596173167
1684123512137224200,0.19722412109375,-0.4182447012931108,0.4363414989978075,0.0931292423352599
1684123512147195400,0.2071953125,-0.8781658133208751,0.6437713665127753,-0.6581243015140295
1684123512157165300,0.217165283203125,-0.8199725675493478,0.8688388897880911,-0.6765618754804134
1684123512167136300,0.22713623046875,0.05722060134708881,1.7004063258022069,-0.5602373432576656
1684123512177107500,0.237107421875,-0.6485071628630161,1.1821236256986856,-1.064073292596638
1684123512187078100,0.247078125,-0.815606189033389,0.7763266103073954,-1.1240960918828844
1684123512197049300,0.25704931640625,-0.15822364579737186,0.7266513097733259,-0.8425812897205353
1684123512207019300,0.267019287109375,0.8118249169290065,0.29518296976983543,-0.2463581485852599
1684123512216990200,0.276990234375,0.4139151476562023,-0.1514277020469308,-0.4500722104474902
1684123512226961400,0.28696142578125,-0.3639087154716253,-0.10429945564717054,-0.4299941757977009
1684123512236932400,0.296932373046875,0.29000702843666076,-0.11616817261725663,-0.29540362678319215
1684123512246903300,0.3069033203125,-0.003571428745985031,0.2246215330734849,0.22777678223401307
1684123512256874200,0.316874267578125,-0.3796826231867075,0.44018736077100035,0.5447779083192348
1684123512266844200,0.32684423828125,-0.8425725218921899,0.6541150658726692,0.8500318979874253
1684123512276815000,0.336815185546875,-0.5998503917217254,1.3770952859178185,1.525017317931354
1684123512286786300,0.346786376953125,-0.7219353871673345,2.053520967797935,1.93607181545943
1684123512296757200,0.35675732421875,-0.9285194515079259,2.17973502587229,1.6547873149216175
1684123512306728400,0.366728515625,-0.5281470915138721,2.083952638679743,1.5231547389298676
1684123512316698400,0.376698486328125,-0.7206009236931801,1.8166975402772425,1.9575240610718725
1684123512326669300,0.38666943359375,-1.6158751082032918,1.226459611031413,1.3321078509390354
1684123512336640300,0.39664013671875,-1.6209733081251383,0.7970654469534755,0.5160346289157867
1684123512346611200,0.406611083984375,-2.804373529630899,0.05793605614006519,0.5611141260921955
1684123512356582400,0.41658251953125,-3.3783944835692643,-0.4078846353203058,0.798877172550559
1684123512366553300,0.42655322265625,-2.1564567338764666,0.8833513992652297,1.582146441602707
1684123512376523300,0.436523193359375,-0.30924013669490813,0.39845395915210247,0.7799737346380948
1684123512386494500,0.446494384765625,0.33012276572585103,-1.781463145288825,0.23062895679473874
1684123512396465400,0.45646533203125,-0.19747195260226724,-2.5820237408816813,0.555357754522562
1684123512406436000,0.46643603515625,0.7875520609378814,-2.2731454232364894,1.2743676096320151
1684123512416407300,0.4764072265625,3.307920432895422,-1.6433756940692663,2.5157833822548388
1684123512426377200,0.486377197265625,5.154698638659715,-1.9402035084366798,2.370052722805738
1684123512436348200,0.49634814453125,6.345262175923586,-1.662669592604041,2.200215211582184
1684123512446319400,0.5063193359375,5.892818267908692,-1.2098290864869952,2.6416379593670367
1684123512456290300,0.516290283203125,4.711808740931749,-0.9153571875959634,3.2248633795022963
1684123512466261500,0.526261474609375,4.03527550702393,-0.3907780176967382,4.03089334641695
1684123512476231400,0.5362314453125,3.6357495347261426,0.07628186016976833,3.598223229408264
1684123512486202000,0.5462021484375,3.520062715885043,0.11650573400855063,3.3983681810617443
1684123512496173300,0.55617333984375,2.8085765342786906,0.33253976373970506,2.7726807527720925
1684123512506144300,0.566144287109375,1.3373720550775527,0.43820904643535613,0.6820090349704027
1684123512516115200,0.576115234375,-0.5057946821913123,0.3428063062101602,-1.7905039453566074
1684123512526085400,0.58608544921875,-0.7813242724642158,0.3406020741641521,-3.5599890680819746
1684123512536056300,0.596056396484375,-1.3823726417988538,0.8952332679778336,-4.11140539150238
1684123512546027300,0.60602734375,-3.2446073598921297,1.425644212770462,-4.317777858918905
1684123512555998200,0.615998291015625,-3.3205133724868294,1.373375680872798,-4.3588609799355265
1684123512565969200,0.62596923828125,-3.122614718905091,1.1552215902477503,-4.1518771026223895
1684123512575940400,0.6359404296875,-2.974048543769121,1.1197264984965323,-3.442366897264123
1684123512585910300,0.64591015625,-1.5669785369567573,0.7329471950471401,-2.3536381790995597
1684123512595881200,0.655881103515625,0.023420623075962065,0.670835314527154,-1.3354279352724552
1684123512605852400,0.665852294921875,1.6375374894350767,0.18947218602001667,-1.05363519295156
1684123512615823400,0.6758232421875,3.6107132931470867,-0.39231063409149647,-0.6276578515797853
1684123512625794000,0.6857939453125,4.421254600006342,-0.7020400156080723,-0.776269619423151
1684123512635764500,0.695764404296875,4.06211382958889,-0.4801777181148529,-0.5898077211350202
1684123512645735200,0.705735107421875,4.157560993477702,-0.3353852162986994,0.02744622533023357
1684123512655706400,0.715706298828125,3.968708985182643,0.7266524788171053,0.43454117157757277
1684123512665677300,0.72567724609375,3.0483231557697055,1.6962556358635426,0.7116822887003421
1684123512675648300,0.735648193359375,3.035251785011589,3.394538978162408,0.8560632871061563
1684123512685619500,0.745619384765625,2.7010931878983975,4.309484662348032,0.5261018494218588
1684123512695589400,0.75558935546875,2.3464783704727887,4.623660501879454,0.3715162678658962
1684123512705560300,0.765560302734375,1.7063585122048854,5.416818127739429,0.6221124924123287
1684123512715531300,0.77553125,1.3482616978824138,5.068122763490677,0.721175508710742
1684123512725502200,0.785502197265625,3.8845045153200624,2.095890329232812,-0.19926351219415664
1684123512735473400,0.795473388671875,5.8442018287777895,1.4799167779669165,-1.9250585462749004
1684123512745444400,0.8054443359375,4.371051183944941,1.897274467292428,-0.40347324861884115
1684123512755414300,0.815414306640625,4.339484663814306,0.6287462313383817,1.1217319931000471
1684123512765385500,0.825385498046875,5.402632950520515,-1.2542831452414394,1.882027798321843
1684123512775356400,0.8353564453125,3.4021687423884868,-1.7086556832313538,1.4796289009362458
1684123512785327000,0.8453271484375,2.0162065516650673,-1.3415017022281885,1.1644833395898342
1684123512795298300,0.85529833984375,0.6760936734467744,-0.584293341627717,2.0828829636216164
1684123512805268200,0.865268310546875,-0.5871557453215122,-0.4704632565692067,2.544918291324377
1684123512815239200,0.8752392578125,-1.8325158716559409,-0.1891100747093558,2.5419886676132677
1684123512825210400,0.88521044921875,-3.5656589304119346,0.1585755279749632,2.259989589065313
1684123512835181300,0.895181396484375,-3.25853885461092,0.1250420916855335,2.4839555808395146
1684123512845152300,0.90515234375,-2.990471270781755,-0.015681260995566843,2.452259004588425
1684123512855122400,0.915122314453125,-3.59707464389503,0.26477029584944245,2.712816943439841
1684123512865093000,0.925093017578125,-3.8222055877953767,0.3666939622759819,2.5133967793792484
1684123512875064300,0.935064208984375,-3.4207056850761175,0.461482662256062,2.2963863058313727
1684123512885035300,0.94503515625,-2.895918425384164,0.5865633323863149,2.8495956501483914
1684123512895006200,0.955006103515625,-2.3718629870980976,0.32147038045376536,2.588602827011049
1684123512904977400,0.964977294921875,-0.6249105986982584,0.16762071195691822,1.99366358820647
1684123512914947300,0.974947265625,-2.5771172641396523,-0.7328183079704642,1.8935691830337047
1684123512924918300,0.984918212890625,-0.9139823921114206,-1.4561308287099004,2.4672327018365263
1684123512934889200,0.99488916015625,0.416010074108839,-1.180666412627697,1.4565505154266953
1684123512944860200,1.004860107421875,-0.21014614073634147,-0.47652124143391844,1.4632920986413955
1684123512954831400,1.014831298828125,0.14613047242164612,-0.2774351316332817,1.359497962167859
1684123512964801300,1.02480126953125,0.27267536988556385,-0.1770157322898507,0.6163374161422253
1684123512974772200,1.034772216796875,0.06263853474259376,-0.09515811781436205,0.16772212650477886
1684123512984743400,1.044743408203125,0.04293137923181057,-0.03177256409674883,-0.16454904942661522
1684123512994714400,1.05471435546875,0.19055355151593684,0.041781624674797055,-0.6604141660168766
1684123513004685600,1.064685546875,0.1345329736083746,0.12107289579361677,-0.6539619211375713
1684123513014656800,1.07465673828125,0.22583120112419128,0.20824790589958428,-0.6440335245802998
1684123513024626700,1.084626708984375,0.5230038834065198,0.3579705575942993,-0.7947285284385085
1684123513034597600,1.09459765625,0.7525321854829787,0.3353109820187092,-0.49009530101716514
1684123513044568800,1.10456884765625,0.9445020335376262,0.14795973367542029,-0.3291109583348036
1684123513054539800,1.114539794921875,0.9645663319230079,0.15081044693142176,-0.7940399616524577
1684123513064510700,1.1245107421875,0.6899485957980156,0.320085355836153,-0.6089370767578483
1684123513074481000,1.13448095703125,0.5264297662019729,0.33023967010378835,-0.4355816205412149
1684123513084451600,1.14445166015625,0.4325450293242931,0.22276976772695778,-0.5896557454437017
1684123513094422800,1.1544228515625,0.4128519023388624,0.273482594615221,-0.7384300103724002
1684123513104393700,1.164393798828125,0.27657413088977334,0.36412294274419543,-0.7997320358142256
1684123513114364700,1.17436474609375,0.14024609055817128,0.48307373181730506,-0.771694858853519
1684123513124335900,1.1843359375,0.12311433849334716,0.5641024942532181,-0.6646645169377327
1684123513134305800,1.194305908203125,0.13261691085398197,0.5500903355136514,-0.6071855569154023
1684123513144276700,1.20427685546875,0.11327625056803226,0.4726897004470229,-0.5479065617337823
1684123513154247700,1.21424755859375,0.13383388542830943,0.3399111692905426,-0.319934256927669
1684123513164218600,1.224218505859375,0.02311667169332504,0.20313860006183385,-0.10974807644188403
1684123513174189800,1.23418994140625,-0.11021335586607456,0.08389145839065312,0.016028466998040676
1684123513184159700,1.24415966796875,0.021066753426194188,-0.005447451750934124,0.03213613671213388
1684123513194130700,1.254130615234375,0.03137655051648617,0.016144786854088305,-0.02553016257584095
1684123513204102000,1.264101806640625,-0.07082417928576469,0.003447510105371475,0.028003859212994572
1684123513214072800,1.27407275390625,-0.02072071646749973,-0.13296119424700736,0.1209820026397705
1684123513224043500,1.28404345703125,0.11357727934122085,-0.18710078071355818,0.26788784334808585
1684123513234014700,1.2940146484375,0.11664426569640636,-0.07292845808863639,0.3199862793758511
1684123513243984600,1.303984619140625,0.1393120245784521,0.032335166415572165,0.3817363408461213
1684123513253955600,1.31395556640625,0.12376432683467864,-0.020573709212243555,0.39563013390302654
1684123513263926800,1.3239267578125,-0.02257072824835777,-0.10904665017426013,0.278368905352056
1684123513273897700,1.333897705078125,-0.23132804497480391,-0.0612622779533267,0.15898673912435768
1684123513283868700,1.34386865234375,-0.36410277673900127,0.047506432062387464,0.1656377214461565
1684123513293838800,1.3538388671875,-0.303787131986022,0.0026028759747743603,0.18390490728169678
1684123513303809500,1.3638095703125,-0.09636895490884781,-0.01680909598171711,0.11261369500607252
1684123513313780700,1.37378076171875,0.031277181795239445,0.02983224368393421,0.21884470323771238
1684123513323751700,1.383751708984375,-0.839325502794981,-0.41478433170616624,-0.025008184528350828
1684123513333722600,1.39372265625,-0.17221768435835838,-0.6786947958558798,-0.27799714943021536
1684123513343693800,1.40369384765625,-0.34144320116341115,-0.4699921319261193,-0.3009685674339533
1684123513353663700,1.413663818359375,-0.36025019296407695,-0.4742883678153157,-0.42566842155307527
1684123513363634700,1.423634765625,-0.3299228592395782,-0.3975774685785174,-0.44447541335374113
1684123513373605600,1.433605712890625,-0.3400456093251705,-0.08188742509186267,-0.3957031991392374
1684123513383576600,1.44357666015625,-0.04533376419842243,0.13298194477409123,-0.21351094099432227
1684123513393547800,1.4535478515625,0.02506663671731949,-0.02975391775071621,-0.09768851307481527
1684123513403517700,1.463517578125,-0.09874036021530627,-0.3196376120686531,-0.13236381287574767
1684123513413488600,1.473488525390625,0.0020300445228815076,-0.18203823662698268,-0.05955605855733156
1684123513423459800,1.4834599609375,0.49765609166026115,-0.2171782313302159,0.0710915980502963
1684123513433430800,1.4934306640625,0.5744692822277545,-0.28667262331694365,0.19255641577094793
1684123513443401700,1.503401611328125,0.36284313206672664,-0.10882277829051017,0.3371975264176726
1684123513453371600,1.51337158203125,0.3349696212351322,0.09220949714183807,0.33877836586833
1684123513463342600,1.523342529296875,0.19606793102324008,0.2705371888130903,0.32007541896402836
1684123513473313800,1.533313720703125,0.09724982939660548,0.39323154832869767,0.13876082043647767
1684123513483284700,1.54328466796875,0.2059311533898115,0.39072073455154893,0.16204758799970148
1684123513493255700,1.553255615234375,0.057900400304794306,0.28796704704165454,0.2406394786775112
1684123513503227000,1.563226806640625,-0.01410159058868885,0.11850421434938907,0.13808335956633092
1684123513513196800,1.57319677734375,-0.0642184974104166,0.02785539065301418,0.14449761052280663
1684123513523167500,1.58316748046875,-0.2295417460799217,-0.021366028633713723,0.170215404625237
1684123513533138700,1.593138671875,-0.3029775691688061,-0.10708177984207867,0.20809563794732092
1684123513543109600,1.603109619140625,-0.4635615143567323,-0.1005956326931715,0.14055764072537422
1684123513553080800,1.613080810546875,-0.6827186445444822,-0.05495061058849096,0.05605506469905376
1684123513563050800,1.62305078125,-0.7273433836907148,-0.06749240451455116,0.04736439324319362
1684123513573021700,1.633021728515625,-0.7481804200142621,-0.10713175646364688,-0.06795417680740357
1684123513582993000,1.642992919921875,-0.6679395930856465,-0.12950579309612512,-0.11876812598258256
1684123513592963600,1.652963623046875,-0.4030769427776336,-0.03415595210194587,-0.21223668327480552
1684123513602934500,1.6629345703125,-0.5329302341371774,0.23587971692979334,0.06681114425212144
1684123513612905700,1.67290576171875,-0.6506605415046215,0.18530980564355848,0.3902802973076701
1684123513622875600,1.682875732421875,-0.5521878923147916,-0.1534475174367428,0.22745471067279577
1684123513632846600,1.6928466796875,-0.6301297946512698,-0.13400748842954635,0.1360121062502265
1684123513642817800,1.70281787109375,-0.3923141412228346,-0.009071195206046104,-0.19193156187087296
1684123513652788700,1.712788818359375,-0.12635609689354896,0.09444646241366862,-0.11508739164322614
1684123513662759700,1.722759765625,-0.44433951201438904,-0.04115983951464295,0.6577338408917188
1684123513672729900,1.732729736328125,-0.3876636850684881,-0.38438378661498424,0.9576672200590371
1684123513682700500,1.742700439453125,-0.3829448398530483,-0.09302373613417148,0.8608873462617397
1684123513692671700,1.752671630859375,-0.6433247917890549,0.4823289047993719,0.5031473825529218
1684123513702642700,1.762642578125,-0.7800304332613944,0.9288811244271695,0.9143038791507482
1684123513712614000,1.77261376953125,-0.953575566831231,0.5320590042605996,0.6904331644445657
1684123513722584800,1.782584716796875,-0.9330851519882678,0.2863477752767503,0.11072188991010189
1684123513732554800,1.7925546875,-1.1085118615210057,0.7659168599739671,0.5492714203462005
1684123513742525700,1.802525634765625,-1.4657856690227984,0.3978378730803728,0.6844803935199976
1684123513752496600,1.81249658203125,-2.2655554064989087,-0.13736527442485094,0.8628384803295135
1684123513762467600,1.822467529296875,-2.51870949883461,-0.12045184128582477,1.1394061814785004
1684123513772438800,1.832438720703125,-2.7013533001393077,0.2439008185610175,1.0613763085976242
1684123513782408700,1.84240869140625,-2.6243384495198727,0.6263508606344461,0.8557277715414762
1684123513792379600,1.852379638671875,-1.6292214965105056,0.6295318287581205,0.8264227666020393
1684123513802350800,1.862350830078125,-0.8638666543334722,0.39351445692330594,0.6398924792528152
1684123513812321500,1.872321533203125,-0.13996084387600422,0.36493835078030823,0.5556085144132376
1684123513822292700,1.882292724609375,1.2636369567811487,0.04893091190755367,0.49641339812278745
1684123513832263700,1.892263671875,2.071551422268152,-0.12664455844610928,0.7098316923975944
1684123513842233600,1.902233642578125,1.8213246155560014,-0.012309154213964939,1.1491332102447747
1684123513852204800,1.912204833984375,1.8343875107467174,0.36605449532866474,1.4262684821486473
1684123513862175700,1.92217578125,1.763034923672676,0.8636433669716119,1.7991852644622326
1684123513872146700,1.932146728515625,1.66949739279747,1.625647145155072,2.2258611094921825
1684123513882117600,1.94211767578125,1.433967804479599,2.5306068573772906,3.543630638477206
1684123513892087800,1.952087890625,1.4153800083875656,2.5266104812175034,4.554485843366384
1684123513902058500,1.96205859375,1.599109851363301,2.384891687758267,6.0181058587878935
1684123513912029700,1.97202978515625,1.5687597212851048,1.832166912087798,6.242862124156952
1684123513922000600,1.982000732421875,0.9522557164043187,1.4549877961546183,5.552762137189507
1684123513931971800,1.991971923828125,1.0789850305244326,1.3057704636335372,4.651417692855
1684123513941942800,2.00194287109375,0.87942487347126,1.0207394700437784,3.473192828160524
1684123513951912700,2.01191259765625,0.5144105348452925,-2.4318723423808812,-2.0168559554845094
1684123513961884000,2.0218837890625,2.0037650032430885,-8.318079667717218,-8.052534880363941
1684123513971854600,2.0318544921875,2.2373770675018427,-9.19119754999876,-12.316558937263489
1684123513981825500,2.041825439453125,0.7602326768577098,-5.619072053921222,-11.326772823888064
1684123513991796700,2.051796630859375,-0.3771504743605852,-1.9599153401225804,-5.146625222319364
1684123514001767000,2.061766845703125,0.0737520494312048,-0.03253916455507278,1.0421218652904034
1684123514011738000,2.071738037109375,1.6625211240440607,-0.9136275873243809,4.001494233453274
1684123514021709000,2.081708984375,2.9641742154866457,-1.8570885873764753,3.086784111589193
1684123514031680000,2.091679931640625,2.9242537085086107,-1.7518851686269044,1.2910165466159582
1684123514041651000,2.10165087890625,2.0585630536183714,-1.4570511584252117,0.48580724843442435
1684123514051620900,2.111620849609375,0.7659120376683771,-1.0069114356994628,0.5476829821109771
1684123514061592000,2.121592041015625,-0.10595262968167662,-0.6442793160349131,0.545879732081294
1684123514071563000,2.13156298828125,-0.8879599159739912,0.684455259078741,0.5010644387990236
1684123514081534200,2.1415341796875,-1.1127988911904394,0.7417284673959016,0.922476664212346
1684123514091505200,2.151505126953125,-0.3802611537270248,1.3780559476435184,1.831154520174861
1684123514101475800,2.161475830078125,-0.03140161189250648,1.7155261535227297,3.4360224966734645
1684123514111446000,2.171446044921875,-0.759351729304716,-0.2687947290599346,3.618549978122115
1684123514121417000,2.1814169921875,0.7318336808472872,-1.156768235167861,2.844368855410814
1684123514131388000,2.191387939453125,1.8993138641655445,-2.9926304946422575,1.6665660155206918
1684123514141359000,2.201359130859375,1.2335574603378772,-4.080885750076175,1.0628659626334904
1684123514151330000,2.211330078125,-0.48026535986568775,-4.432051888352632,0.6249234581798314
1684123514161301200,2.22130126953125,-1.1465151367008686,-4.316453916838765,0.11892623915374279
1684123514171271200,2.231271240234375,-1.4184312126517296,-4.708872102957963,-0.6594663637727498
1684123514181242000,2.2412421875,-1.0092600446522235,-3.9578655196070667,-1.1083026026844978
1684123514191213000,2.251213134765625,-0.44249476093053813,-2.2696400454640386,-1.7858990819096565
1684123514201184000,2.26118408203125,-0.1923193190794438,-0.2951215949714184,-2.1982927190870045
1684123514211155000,2.271155029296875,0.88259532020092,1.580512118399143,-2.100857888512313
1684123514221125000,2.281125,0.945121626740694,2.9262901827722785,-2.5354817699372765
1684123514231096000,2.291095947265625,-1.2434358802735805,7.215043607258797,-0.20109335796982047
1684123514241067000,2.30106689453125,0.10177337123565375,9.728371413055061,2.3887764202371238
1684123514251038000,2.311037841796875,2.715571795105934,8.967475303852558,-1.7964777590692043
1684123514261009000,2.3210087890625,3.112418903583288,9.732980368155241,-4.853022799739241
1684123514270980000,2.33097998046875,1.676608686107397,8.487496907702088,-4.517480931574106
1684123514280950000,2.340949951171875,-0.5219558356583118,5.864364326840639,-4.4178930146187545
1684123514290921000,2.3509208984375,-0.7665875988423824,1.977915107193589,-3.931887905524671
1684123514300892200,2.36089208984375,-3.4590158342480657,2.2892092538088558,-4.833850481757521
1684123514310863000,2.370863037109375,-3.4514790090024468,0.8669722191333771,-3.180390616047382
1684123514320834000,2.380833984375,-0.43835524997301395,-1.318113812378049,0.7291212070181965
1684123514330804200,2.39080419921875,-0.2580804793545976,-3.3900457583963868,1.8169830792203545
1684123514340775000,2.40077490234375,0.5232955232968554,-6.52664399446845,-0.17362988924384115
1684123514350746000,2.41074609375,1.2502829696893691,-6.097586222738027,1.845071109585464
1684123514360717000,2.420717041015625,0.07999646024610847,-1.0933809278845787,7.358987967813015
1684123514370688000,2.43068798828125,0.679727646034956,-0.30850889981091023,5.005982825919985
1684123514380658200,2.440658203125,0.16461539266109465,-0.5228542458027601,0.01471416952908039
1684123514390629000,2.450629150390625,-1.232481940060854,0.34257015936672686,-2.9464982735425234
1684123514400600000,2.46060009765625,-1.0036369440734385,-0.5180220033407211,-2.6538538823395967
1684123514410571000,2.470571044921875,0.03495440900325775,-0.43290918646156784,-2.145974795089662
1684123514420542000,2.4805419921875,0.9777274267911911,-0.390418536734581,-1.024238710336387
1684123514430513200,2.49051318359375,1.2556979804754256,0.005442483314871788,0.16824118194282053
1684123514440483000,2.500483154296875,0.510224481332302,0.8267237953752279,4.302825788980722
1684123514450454000,2.5104541015625,-0.7072142033755778,0.7532692675858735,7.717191749641299
1684123514460425200,2.52042529296875,-2.3435095837950706,-2.1414982341974973,6.248341432350873
1684123514470396200,2.530396240234375,-2.4183447522878647,-9.528890458717942,0.6146979053068906
1684123514480366800,2.540366943359375,0.5102793533246964,-10.442366654872894,3.7336680571645497
1684123514490337000,2.5503369140625,-1.2742156339406967,-9.945141940367222,3.3715199216246603
1684123514500308000,2.560307861328125,-3.6393104420781133,-4.384949360916019,3.4548014314234257
1684123514510279000,2.57027880859375,-2.0367945816636084,-3.144049721121788,2.709873875725269
1684123514520250000,2.58025,3.483340128165483,-5.0964223907798525,1.8646259971439838
1684123514530221000,2.590220947265625,3.0072353585779665,0.9564654430538415,-1.605551867109537
1684123514540192000,2.60019189453125,1.8147931679606437,-1.2074527127444743,-0.17631605958789587
1684123514550162200,2.610162109375,2.4656781658709046,-1.3185486966639757,1.6829624390482902
1684123514560132900,2.6201328125,-0.9221930980306118,2.4854174700856206,0.40166787969730794
1684123514570104000,2.63010400390625,-1.7275649663627146,4.495473097905516,-2.154753729350865
1684123514580075000,2.640074951171875,0.48492754299044605,3.5691415118306873,-3.523618654800951
1684123514590046000,2.6500458984375,2.757092723017931,-6.786708889105916,1.4486349199965596
1684123514600016100,2.66001611328125,5.778077205485105,-12.138050628328322,5.042261177003383
1684123514609987000,2.669987060546875,-3.0435061108767982,1.6501953109562395,-0.3153697254911065
1684123514619958000,2.6799580078125,-3.78133640179038,7.406207399627566,-5.099309344393014
1684123514629929000,2.689928955078125,0.7321825673501938,2.7026597065627573,-1.9579516388341784
1684123514639900000,2.69989990234375,1.4485060329198836,2.536840198808908,1.8688025521762668
1684123514649871000,2.70987109375,-1.3356909701228141,6.201594294223189,1.1480384007453919
1684123514659841000,2.719841064453125,-2.6670599853932857,9.962242712771891,-0.7576420758426189
1684123514669812000,2.72981201171875,0.7183129588864743,9.821861597657204,-1.7237417548127472
1684123514679783200,2.739783203125,0.9044879299920052,8.058711523172258,-1.2748089236587286
1684123514689754000,2.749754150390625,-0.5231950220644473,6.716568600431084,-1.3873866705685853
1684123514699725000,2.75972509765625,-0.5604243171971292,5.709507527127862,-0.9536701132468879
1684123514709695000,2.769695068359375,-0.21965755399055778,4.287500794076919,0.08273257067911327
1684123514719666000,2.779666015625,-0.6289420461714267,2.866036497339606,1.585655180376023
1684123514729637000,2.78963720703125,-1.3512849912263452,2.3060282866626975,2.7681957163125275
1684123514739608000,2.799608154296875,-1.0568087814863771,1.945700936809182,3.785734344488382
1684123514749579000,2.8095791015625,0.9114918174047022,1.833918139669299,4.011607338927686
1684123514759550200,2.81955029296875,2.463568041849136,2.2829244744509456,2.6494363581582903
1684123514769520000,2.82952001953125,1.6588509110987186,2.926889902231097,2.127370486254245
1684123514779491000,2.839490966796875,0.2877028431475162,3.5042227571964264,1.3058049504250286
1684123514789462000,2.8494619140625,-0.3949897171076387,2.941138792335987,0.15135872846394777
1684123514799433000,2.859432861328125,-1.4317898759186267,0.8513923726856708,-2.3971079029917717
1684123514809404200,2.869404052734375,-0.7157330253958701,-1.11180447332561,-4.598423184770345
1684123514819374000,2.8793740234375,1.5549978840447962,-2.192699429124594,-4.413122146955132
1684123514829345000,2.889344970703125,0.7542857511520386,-2.565746559819579,-2.059901754876226
1684123514839316200,2.899316162109375,-0.34815080904327333,-3.5300808365523815,-0.11780717199593782
1684123514849287000,2.909286865234375,-0.42395730678625404,-4.322041361582279,0.23469437960274517
1684123514859257900,2.9192578125,-1.3228595456004142,-4.46437653337419,0.46680341888740656
1684123514869229000,2.92922900390625,-2.114963863015175,-4.268282298865914,0.6782619573965668
1684123514879199000,2.939198974609375,-1.0763176379460841,-2.769215122488141,0.9196426828954368
1684123514889170000,2.949169921875,0.5263431838970631,-0.17784253850281237,1.049074387842044
1684123514899141000,2.95914111328125,1.2493500727534292,0.9684761988431214,0.858283301243186
1684123514909112000,2.969112060546875,0.5891407085936516,0.844610749721527,0.11747333693169057
1684123514919083000,2.9790830078125,0.24339016562514007,0.46245852155089373,-0.2951411033894866
1684123514929053200,2.98905322265625,0.2090412482343614,-0.09954933851063251,-0.2994838087689131
1684123514939024000,2.99902392578125,-0.10780234920158982,-0.7142921789377927,-0.13028225736133753
1684123514948995000,3.0089951171875,0.9229342717867344,-1.481797477146983,1.3204434243693948
1684123514958966000,3.018966064453125,0.55224692902565,-1.97823016449213,0.9962002182014286
1684123514968937000,3.02893701171875,-1.0734021888907999,-0.3358668623358011,0.5156175725474953
1684123514978908200,3.038908203125,-0.42588403706513345,1.4348206219166517,1.463597657459229
1684123514988878000,3.048878173828125,-0.122529962734133,1.3350170163840054,1.086826026348397
1684123514998849300,3.058849365234375,-0.5795792456526309,0.4177215542018413,0.2016031341228634
1684123515008819500,3.0688193359375,0.26369528702907263,-0.10750468142926692,-0.25241883686371147
1684123515018790100,3.0787900390625,0.8997405162692069,-0.4328191700905561,-0.49580520309656856
1684123515028761300,3.08876123046875,-0.4202490268528461,-6.119696932259202,-7.387450092187524
1684123515038731300,3.098731201171875,0.14501272043809293,-0.6220306593477726,-2.060548089955747
1684123515048702200,3.1087021484375,0.358262964669615,6.790862501654028,7.115200838759541
1684123515058673400,3.11867333984375,1.4353941840209066,3.7589685026377437,3.980619787728786
1684123515068644400,3.128644287109375,1.2222248960711062,1.1952695229977368,0.8861107079107314
1684123515078615600,3.138615478515625,-0.8559035664997995,-0.3601449790239334,-0.3725078361865133
1684123515088586200,3.148586181640625,-1.6394366010546684,-1.5044529610693453,-1.0732336273908614
1684123515098556200,3.15855615234375,-0.6547066020250321,-1.9567115756452083,-0.8608725870840251
1684123515108527400,3.16852734375,0.020981924686953424,-1.816778788819909,-0.5352054125275463
1684123515118498300,3.178498291015625,0.06102291623950004,-1.1946341477036475,-0.010686813709139823
1684123515128469200,3.18846923828125,0.1954313136201352,-0.38836277324855323,0.6255681127589195
1684123515138440400,3.1984404296875,-0.2715418358109891,0.23907062192559242,0.6362354911152273
1684123515148411400,3.208411376953125,-0.3901438114464283,0.8917816662192344,0.31659006106629967
1684123515158381300,3.21838134765625,-0.10974756498523056,1.6051181518673896,0.14761683852188287
1684123515168352300,3.228352294921875,0.2775169646978378,1.2657763068974017,0.23309359334260224
1684123515178323200,3.2383232421875,0.5041173966288567,-0.13600363068282603,0.2611301857814193
1684123515188294400,3.24829443359375,0.29918168401718137,-1.048720532903075,0.4128996870033443
1684123515198265300,3.258265380859375,-0.2684429930128157,-1.0626116956114768,0.48861741048432883
1684123515208235300,3.2682353515625,-0.7153178687237203,-0.19898060359954833,0.10365538558997213
1684123515218206500,3.27820654296875,-1.1069314604617655,0.9315957902133464,-0.4065771329183131
1684123515228177400,3.288177490234375,-0.2100302592717111,1.1170908892959355,-0.29799736960344014
1684123515238148000,3.298148193359375,0.522493449666351,0.11493103203773498,-0.2208283513356
1684123515248119300,3.308119384765625,0.37837490158900616,-0.3415285413593054,0.1997073835041374
1684123515258089200,3.318089111328125,0.03280439136251807,-0.9030956719160079,0.43322460908628996
1684123515268060400,3.328060302734375,-0.24270532516613602,-0.9616688569158315,0.5817305784676223
1684123515278031400,3.33803125,-0.9203799841940402,-0.7742471736848354,0.5758747651115059
1684123515288002300,3.348002197265625,-0.1373218736745417,-0.4275350922077894,0.3257371710527688
1684123515297973500,3.357973388671875,1.154779983960092,0.13465280059576035,0.27596915073394773
1684123515307944200,3.367944091796875,0.5036227449797094,1.3360609724789858,1.1421953738056123
1684123515317914400,3.377914306640625,-0.07869432813897728,1.0937304719746113,0.809221602562815
1684123515327885300,3.38788525390625,0.2373496433518827,0.17523089469969272,-0.11811835683695972
1684123515337856300,3.397856201171875,0.8442328563198447,-0.41160044097304344,-0.24297679905127734
1684123515347827500,3.407827392578125,0.5510555272839963,-0.49389001712501046,-0.22347985222507266
1684123515357798400,3.41779833984375,0.32574002059698104,-0.14453297409713267,-0.06641805328130722
1684123515367768300,3.427768310546875,0.25662600622996684,0.3236041776120662,0.11210128850452601
1684123515377739500,3.437739501953125,0.2689325300954282,0.42713586375713347,0.25145543519165364
1684123515387710200,3.447710205078125,0.11902736144065856,0.31567572270035743,0.32126068322584034
1684123515397681200,3.45768115234375,-0.008660422448068857,0.09890168825685977,0.36604916156642137
1684123515407652400,3.46765234375,-0.08664835588335991,-0.07316109780073166,0.36093393744453783
1684123515417623300,3.477623291015625,-0.22779417176023126,-0.13296236329078673,0.30604393446948375
1684123515427593200,3.48759326171875,-0.2953415213324129,-0.168518245318532,0.2372194045683369
1684123515437564400,3.497564453125,-0.18733005942478775,0.11152619203031063,0.3714004959991202
1684123515447535400,3.507535400390625,0.0393617040514946,0.593086888936162,0.6289530059568583
1684123515457506300,3.51750634765625,0.4103578935660422,1.0269430008590221,0.9149673114955424
1684123515467477200,3.527477294921875,0.7705950809180736,1.2997224156409501,1.2782586257211863
1684123515477447200,3.537447265625,0.8947463612437248,1.4149714275866747,1.6059456887327133
1684123515487418400,3.54741845703125,0.7413830149590969,1.380083654078841,1.6772916999354957
1684123515497389300,3.557389404296875,0.3882429462611675,1.245053836864233,1.496787687138468
1684123515507360300,3.5673603515625,0.07475202025398611,0.9140361681252718,1.1659851224549114
1684123515517331500,3.57733154296875,-0.3701237905941903,0.6296615926176309,0.6338989379264414
1684123515527302100,3.58730224609375,-1.1622202169634401,0.2777519424974918,-0.13817248088819906
1684123515537272300,3.597272216796875,-1.7339609510101377,-0.04033142586648464,-0.9538137595012783
1684123515547243300,3.6072431640625,-1.9775101796545087,-0.2211637938350439,-1.5540695171535015
1684123515557214200,3.617214111328125,-2.0539703190006313,-0.548244707646966,-1.9524024802744386
1684123515567185400,3.627185302734375,-2.1247524127103388,-0.8733832552194595,-2.0419550331667065
1684123515577156400,3.63715625,-1.9065910155616699,-1.1593576671391725,-1.7292235472247004
1684123515587126300,3.647126220703125,-1.4096588542617856,-1.3367717510968447,-0.9365413568567484
1684123515597097500,3.657097412109375,-0.8225333579480647,-1.1861708552628756,0.1616088312562555
1684123515607068400,3.667068359375,-0.05682721811532974,-0.7290221305578947,1.0781861352317035
1684123515617039400,3.677039306640625,0.8482469142667949,-0.3000467764139175,1.470527310591936
1684123515627010300,3.68701025390625,1.1546493433177472,-0.07644026560187339,1.3795602147266268
1684123515636981200,3.696981201171875,0.6132302439071238,0.020047931772470474,1.2645597707144915
1684123515646951400,3.706951416015625,-0.22908114283084868,0.2672913387596607,1.5520251518443227
1684123515656922400,3.71692236328125,-0.7553950275681912,-0.12558102086782455,1.785330195980519
1684123515666893300,3.726893310546875,-0.8923077359199524,-0.3507973049640655,2.087122500887513
1684123515676864500,3.736864501953125,-0.515211622095108,-0.14250760574936866,2.469288173061609
1684123515686835200,3.746835205078125,-0.216588741004467,0.04665303010344505,2.7122905814781784
1684123515696805000,3.75680517578125,-0.30699571876898407,0.18107669811844826,2.6589377614751455
1684123515706776300,3.7667763671875,-0.5463713149905205,0.43387072497010226,2.5009669213950634
1684123515716747300,3.776747314453125,-0.534512534892559,0.7160387303441762,2.3863773962713775
1684123515726718500,3.786718505859375,-0.2870670294620096,0.9404670789331198,2.3853012914724645
1684123515736689400,3.796689453125,-0.027256255716085434,0.9676374099314212,2.430723464606702
1684123515746660400,3.806660400390625,0.22251564683541655,0.867253958684206,2.5627210745185613
1684123515756630500,3.816630615234375,0.3523335746206343,0.605696195140481,2.629087105351686
1684123515766601200,3.826601318359375,0.33164237650856376,0.34429683702886105,2.624150817993283
1684123515776572200,3.836572265625,0.23220585072264074,0.23912439793944357,2.5959640034288167
1684123515786543400,3.84654345703125,0.09893938991874456,0.20848726761341094,2.4939377534106373
1684123515796514300,3.856514404296875,0.05075958863943815,0.2270201186478138,2.3542862677447496
1684123515806484200,3.866484130859375,-0.08805734589844942,0.18315759604573248,1.954643829460442
1684123515816455400,3.876455322265625,-0.34367782834768296,0.1492243467837572,1.4917862255893646
1684123515826426400,3.88642626953125,-0.5233611724115907,0.15726678346395492,1.0816257542915642
1684123515836397300,3.896397216796875,-0.6089725864626467,-0.0008674304842948913,0.6225254571273923
1684123515846368300,3.9063681640625,-0.45837271354198456,-0.20803777028024195,0.22167159722670912
1684123515856339200,3.916339111328125,-0.36750162539705633,-0.37028292667865753,-0.10079553917944431
1684123515866309400,3.926309326171875,-0.712706371051073,-0.6657657561779022,-0.5962894113045185
1684123515876280300,3.9362802734375,-1.0931531104780734,-1.096864093825221,-1.1623390941027552
1684123515886251300,3.946251220703125,-0.9837386499047279,-1.3442132992744444,-1.5215458424285053
1684123515896222500,3.956222412109375,-0.8087070771694183,-1.4015151491641997,-1.7634895355723796
1684123515906193200,3.966193115234375,-0.5775790848113596,-1.075520861545205,-1.8383434087656436
1684123515916163300,3.976163330078125,-0.30166911691874265,-0.43913960528373713,-1.8516931580737233
1684123515926134300,3.98613427734375,-0.17726576152816415,0.2489215693324804,-2.1593644380167127
1684123515936105200,3.996105224609375,-0.1996528037726879,1.0743260988026857,-2.32661880087927
1684123515946076400,4.006076416015625,-0.3010693974599242,1.5418910035818814,-2.5177491293698546
1684123515956047400,4.01604736328125,-0.43049101940393447,1.7273995466679333,-2.474346625494957
1684123515966018600,4.0260185546875,-0.5684367240652441,1.410403389018774,-2.710970438790321
1684123515975988500,4.035988525390625,-0.4636787109956145,1.0023924969702958,-2.8525469011694193
1684123515985959200,4.045959228515625,-0.27788024505227804,0.4934481185764074,-3.3634102649271487
1684123515995930400,4.055930419921875,-0.029734628528356552,0.18387831153571604,-3.5977968206897377
1684123516005901800,4.06590185546875,0.0997369700372219,-0.03272621155977249,-3.3922289476543663
1684123516015873000,4.075873046875,0.06426935081481933,-0.36038872465193267,-2.9113106403052806
1684123516025843000,4.085843017578125,0.005161182155460119,-0.7243412792652845,-2.289532640544325
1684123516035814000,4.09581396484375,0.03948869143202901,-1.075425584477186,-1.4039905993670225
1684123516045784800,4.105784912109375,0.004981149413436651,-1.4729559990435839,-0.3724053987253457
1684123516055755800,4.115755859375,-0.08675327756255864,-1.9080811079889535,0.49148595165796577
1684123516065727000,4.12572705078125,-0.0557049360871315,-2.2280109810024498,1.1253780945174396
1684123516075698000,4.135697998046875,0.32817353135421873,-2.1029408322662113,1.7034738966792822
1684123516085667800,4.145667724609375,0.7638961678013205,-1.6277099229037761,2.1461624266162516
1684123516095639000,4.15563916015625,0.7685023464225232,-1.1400193449407816,2.502157592484355
1684123516105610000,4.16560986328125,0.1493849441729486,-0.6288777487635612,2.6548624748602507
1684123516115580700,4.17558056640625,-0.4134627277135849,0.01229249534010887,2.461822951747477
1684123516125551900,4.1855517578125,-0.19213731357604263,0.5320873535722493,1.6610703407138585
1684123516135521800,4.195521728515625,0.5612240162074565,0.661385349136591,0.7166765167910605
1684123516145493000,4.205492919921875,0.8403481238409877,0.3661310676962137,0.29767949929330495
1684123516155464000,4.2154638671875,0.5590108702026307,-0.10224164633452892,0.5215501044016331
1684123516165435000,4.225434814453125,0.023088760773092507,-0.41197336593866346,0.9354442092698066
1684123516175406000,4.235406005859375,-0.5221361606612801,-0.5379308189034462,1.1866295588158071
1684123516185376800,4.245376708984375,-0.6137726802207529,-0.5811743328243494,1.1644591549966483
1684123516195347000,4.255346923828125,-0.29975787646993995,-0.4660159217715263,0.7802393998369574
1684123516205318000,4.26531787109375,0.11496128104552626,-0.07185352233350277,0.200429158440046
1684123516215288800,4.275288818359375,0.27255671194195746,0.6288081906586885,-0.47182731146402657
1684123516225260000,4.285260009765625,0.10835742580108344,1.3445353708356618,-1.1913389055505395
1684123516235231000,4.29523095703125,0.09749591311216353,1.9787661710649727,-1.9672318006157874
1684123516245201000,4.305200927734375,0.3784812845729291,2.620336812663078,-2.594711957541108
1684123516255172000,4.315172119140625,0.6310334654927253,3.0534488282203673,-3.0050141753971573
1684123516265143000,4.32514306640625,1.0387293002426623,2.76537422915101,-3.1294135852649805
1684123516275113700,4.33511376953125,0.9251929374337196,1.4905939470648766,-2.8026369150966404
1684123516285085000,4.3450849609375,0.16287585551738737,-0.18452420822381974,-2.0770336530715228
1684123516295056000,4.355055908203125,-0.29753216324448584,-1.712538077622652,-0.9430440898142755
1684123516305025800,4.36502587890625,-0.15551570201292633,-2.7415029396981,0.3652615183200687
1684123516314997000,4.3749970703125,0.288749064264819,-3.0274072089910504,1.6021157551810143
1684123516324968000,4.384968017578125,0.7079962936639785,-2.5514748733609913,2.4376740143969653
1684123516334939000,4.39493896484375,0.8468015377640724,-1.322324708071351,2.499824765622616
1684123516344909800,4.404909912109375,1.0124901126146315,0.133918641102314,1.6694351412162183
1684123516354880800,4.414880859375,1.299717154943943,1.4331664249688385,0.916453604530543
1684123516364851000,4.424850830078125,1.1074304229598493,2.1853438056647776,0.3918715850871056
1684123516374822000,4.43482177734375,0.5409024551253766,2.2206220397949217,-0.022029205250181257
1684123516384792800,4.444792724609375,-0.06683430593200028,1.7383283524394035,-0.44725547252632675
1684123516394764000,4.454763916015625,-0.45395847729630767,0.9916074835836887,-0.9311720118433237
1684123516404735000,4.46473486328125,-0.5399357289850711,0.3172621151089668,-1.1905820958338678
1684123516414705000,4.474704833984375,-0.5406406623840332,-0.04848258361816406,-1.013414241722226
1684123516424675800,4.48467578125,-0.5532429543256759,-0.17291501897275446,-0.5214281585223972
1684123516434646800,4.494646728515625,-0.6622153702199459,-0.21905133172571659,-0.2174613043216057
1684123516444618000,4.504617919921875,-1.030548331874609,-0.31246786656975745,-0.525821571175754
1684123516454589000,4.5145888671875,-1.1869360674817115,-0.37211540280282496,-1.1720523135393857
1684123516464559900,4.524559814453125,-1.1424679802019149,-0.2362117253631353,-1.7141015275470912
1684123516474530000,4.534530029296875,-1.42646838863492,-0.06488017618954181,-2.229988710816204
1684123516484501000,4.5445009765625,-1.7216881832838058,0.1301665950924158,-2.521051970307529
1684123516494472000,4.554471923828125,-1.711163282138109,0.4332078771471977,-2.193917426612228
1684123516504443000,4.56444287109375,-1.8016437635302542,0.5040583599179983,-1.6160048720628022
1684123516514413800,4.574413818359375,-1.5470330426454544,0.4586749113589525,-0.9281272373199463
1684123516524384000,4.584384033203125,-1.2246563610017298,0.3454144428819418,-0.4256827423393726
1684123516534355000,4.59435498046875,-1.0692962879419325,0.25795769322514533,-0.06943447849303483
1684123516544326000,4.604325927734375,-0.9116378748118877,0.1685650070697069,0.11301174527979455
1684123516554297000,4.614297119140625,-0.836236889129877,0.14511223528981207,0.06174406098774634
1684123516564267800,4.624267822265625,-0.7280079850792884,0.1609960331201553,-0.1417072491519153
1684123516574239000,4.634239013671875,-0.614306787097454,0.20740940924882886,-0.373920698659122
1684123516584209000,4.644208984375,-0.5029378314554691,0.2407446926176548,-0.43005555059611794
1684123516594179800,4.654179931640625,-0.45909401355385776,0.19293547821640966,-0.2793703374795615
1684123516604151000,4.664151123046875,-0.5741875792095438,0.09573591770231724,-0.05281712395744398
1684123516614122000,4.6741220703125,-0.6689268505573273,-0.010461188259720802,0.18684212977737188
1684123516624093000,4.684093017578125,-0.6195265675723552,-0.10490238997638225,0.36320074986536055
1684123516634063000,4.69406298828125,-0.6627461160957813,-0.1657195545107126,0.4994789231732487
1684123516644033800,4.70403369140625,-0.7370458625376224,-0.164939217787981,0.6112077981688082
1684123516654004700,4.714004638671875,-0.553681382275559,-0.1311374859511852,0.6161774032749235
1684123516663976000,4.723975830078125,-0.33962479009721425,-0.1263192720144987,0.5511358990438282
1684123516673947000,4.73394677734375,-0.5003132551055401,-0.18596154755055902,0.5005043206982315
1684123516683918000,4.74391796875,-0.8167500253062695,-0.22633388994932174,0.4868763389706611
1684123516693888000,4.753887939453125,-0.9707143331587315,-0.19837503892183303,0.448146941473335
1684123516703859000,4.76385888671875,-1.017519338953495,-0.1974175920665264,0.46473932596445083
1684123516713830000,4.773829833984375,-1.0695136570196597,-0.2809305725336075,0.5240389255426824
1684123516723800800,4.78380078125,-0.9406780913352966,-0.31847499803006646,0.7367832660786807
1684123516733771800,4.793771728515625,-0.6241769506614655,-0.14943419014215467,1.1884491754584015
1684123516743742000,4.803741943359375,-0.6047568684637546,0.17248071920871733,1.7567523362718522
1684123516753713000,4.813712890625,-0.5065958425063639,0.5680354497879744,2.2476140916168688
1684123516763683800,4.823683837890625,-0.21779753227233886,0.9701192898750305,2.554973821392655
1684123516773655000,4.833655029296875,0.2744844651341438,1.110519694212079,2.6671926718622445
1684123516783625700,4.843625732421875,0.8926560379009694,0.9603630350142717,2.6359298108533022
1684123516793597000,4.853596923828125,1.2313865460395812,0.7741413752228021,2.471310034278035
1684123516803566800,4.86356689453125,1.0064579197783023,0.7380418878376483,2.2889232764743266
1684123516813537800,4.873537841796875,0.2107364347796887,0.7354758367419243,2.1899311334550378
1684123516823509000,4.883509033203125,-0.4961585465788841,0.6745066965162754,2.1289149392172693
1684123516833480000,4.89347998046875,-1.0121220830198376,0.5763432594060898,2.136694633308053
1684123516843451100,4.903451171875,-1.4688159766294062,0.4289899671912193,2.1027501319997013
1684123516853421000,4.913421142578125,-1.7990462943829595,0.19954992792010307,2.006590289796889
1684123516863392000,4.92339208984375,-1.810508622509241,-0.13808394408822058,1.9358773158006368
1684123516873363000,4.933363037109375,-1.8474460220232605,-0.6079243925839662,1.9252707277208565
1684123516883334000,4.943333984375,-1.9306679105892777,-1.5226473739296198,1.7863140924513339
1684123516893304800,4.953304931640625,-1.7090500893764198,-2.226203639319539,1.9169740240186453
1684123516903276000,4.963276123046875,-1.66985161306262,-3.234177735814452,1.8659528618335723
1684123516913246000,4.973245849609375,-2.1575962593004108,-4.23483069564104,1.9541526849426327
1684123516923217000,4.983216796875,-2.711543270242214,-5.343094719880819,2.2807475688032803
1684123516933187800,4.993187744140625,-3.9982808243647217,-6.785018451800942,2.361158491601795
1684123516943158800,5.00315869140625,-6.044724401122331,-7.992007054165005,1.999311384835094
1684123516953130000,5.0131298828125,-7.011679089486599,-8.660002176830172,1.6934119368702172
1684123516963100000,5.023099853515625,-6.394083782237768,-10.274206721472739,1.2194291278727352
1684123516973070800,5.03307080078125,0.5396545739561319,-14.456610479784011,0.7651698409989476
1684123516983042000,5.0430419921875,9.686241413334011,-19.498589917236565,0.2208789855442941
1684123516993013000,5.053012939453125,12.596890959382057,-21.314010861706734,0.1385828335210681
1684123517002984000,5.06298388671875,9.29951647042036,-15.987170526534317,-0.3943652285337448
1684123517012958500,5.07295849609375,3.5060037953943013,-2.9579999107658863,-1.3260782153859734
1684123517022928400,5.082928466796875,-4.745108076204359,6.830135358378291,-1.7981416006281972
1684123517032899300,5.0928994140625,-4.593922366219759,9.998379025036096,-1.5845672390088439
1684123517042870500,5.10287060546875,-7.3198811153054235,9.970821156024932,-3.907241832306981
1684123517052841500,5.112841552734375,-5.134793330228328,8.542196466138959,-7.804862434309721
1684123517062812700,5.122812744140625,4.008843134911358,4.712524780246615,-10.888953069031238
1684123517072783400,5.132783447265625,2.740418067070842,0.7479173851639032,-11.409797144055366
1684123517082753500,5.14275341796875,-2.1748136438220738,-1.2114309687256812,-9.350274013233184
1684123517092724500,5.152724365234375,1.0144687192112207,-0.3633008127063513,-6.324734936201572
1684123517102695400,5.1626953125,6.064864102831483,0.8991162468910217,-1.9345397835865616
1684123517112666400,5.172666259765625,5.640647925913334,0.9132739515811205,0.15562193886637687
1684123517122637600,5.182637451171875,3.0548224546611307,0.7975298495948314,-0.03665975161641836
1684123517132608500,5.1926083984375,5.3165924974024295,2.218230760744214,-0.5119800928279757
1684123517142578400,5.202578369140625,5.6614130660444495,1.9188649523317813,-1.6920836108759045
1684123517152549600,5.212549560546875,3.1818338005930182,-0.28266952515542504,-3.7123645723730325
1684123517162520300,5.222520263671875,2.4609733491808177,-1.9948598122537136,-6.07699234752059
1684123517172491500,5.232491455078125,5.193047950798273,-1.0842121175229549,-6.1422939639925955
1684123517182462500,5.24246240234375,4.833022214239835,0.9579337620407342,-5.65426962403059
1684123517192432400,5.252432373046875,4.669442594367266,3.174415048769116,-4.4992324504390355
1684123517202403600,5.262403564453125,4.280066844683885,4.373619573128223,-3.4563659042611716
1684123517212374500,5.27237451171875,4.093568706038594,3.6422289598733184,-2.1725407304540276
1684123517222345500,5.282345458984375,3.3983436311423776,2.3439485597342253,-1.0643974099844693
1684123517232316400,5.29231640625,2.7856425256758928,1.3269488607406617,-0.4923457102924585
1684123517242287400,5.302287353515625,1.5398457614898682,0.824789612442255,-0.15626637424975634
1684123517252257300,5.31225732421875,0.031767011138796805,1.0832657765835523,-0.20750994701385497
1684123517262228500,5.322228515625,-0.6045066930949687,1.170591593337059,0.13045330307930708
1684123517272199400,5.332199462890625,-1.018766708666086,1.237289632603526,1.0839517130210996
1684123517282170600,5.342170654296875,-1.4502256963193416,1.5916770710140467,1.857529316881299
1684123517292141300,5.352141357421875,-1.50002403871119,1.430763455480337,2.6558216752812265
1684123517302112300,5.3621123046875,-1.5654793844401835,1.0315548785686492,3.1224557289510964
1684123517312082400,5.37208251953125,-1.2337526906490326,0.6114817928045988,3.0000717505589125
1684123517322053400,5.382053466796875,-1.6850252167969941,0.19156068273186683,2.1798235809385775
1684123517332024300,5.3920244140625,-1.813061814123392,-0.41382162415385243,1.3982856657236813
1684123517341995500,5.40199560546875,-1.5896961263298988,-0.9370710067540406,0.8953115939110518
1684123517351966500,5.411966552734375,-1.2211936533272265,-0.9078162706971168,0.4622089307039976
1684123517361936600,5.4219365234375,-0.3362427099108696,-0.6749006642699241,-0.0192886378377676
1684123517371907600,5.431907470703125,0.05176408950686454,-0.4551736252397299,-1.0978466751217841
1684123517381878300,5.441878173828125,1.7584814981520176,-0.4262152417808771,-2.5076953528672457
1684123517391849500,5.451849365234375,2.7373747538521886,-0.8156243092119694,-4.212964900791645
1684123517401820400,5.4618203125,3.3138425164207814,-1.2611200055241585,-5.892596149590611
1684123517411791600,5.47179150390625,2.969792347629368,-1.3396119429588318,-6.964184932383895
1684123517421761500,5.481761474609375,2.9833658226907254,-0.9766834706962108,-8.164332875072956
1684123517431732500,5.491732421875,2.887937071241438,-0.1213221943795681,-9.983871191734075
1684123517441703700,5.50170361328125,2.219502388115227,1.4737784213423728,-12.188662040668726
1684123517451674400,5.51167431640625,3.1021602521583436,4.522772608241438,-14.00636495859623
1684123517461645300,5.521645263671875,4.178724777537584,8.860219628748297,-14.368548749971389
1684123517471615500,5.531615478515625,4.187998801839352,12.959662779778242,-12.718331227183342
1684123517481586400,5.54158642578125,3.507014433741569,16.083751078367232,-9.489698850536346
1684123517491557400,5.551557373046875,3.0736463975965975,17.620232331860063,-6.3440656596153975
1684123517501528600,5.561528564453125,3.8629870955169197,17.760703463345767,-4.114470624291896
1684123517511499500,5.57149951171875,5.086783040297031,16.499067909514903,-3.2513048117041587
1684123517521470500,5.581470458984375,5.27192567268014,14.508339497977495,-3.797109432722628
1684123517531440400,5.5914404296875,4.731011454051733,12.139801855909823,-4.769906125113367
1684123517541411300,5.601411376953125,3.494989649426937,9.894438173568249,-5.207547016271948
1684123517551382500,5.611382568359375,1.7251216648638248,8.00294755037427,-5.694118819338083
1684123517561353500,5.621353515625,1.4200094217538832,7.792497458255291,-6.778246181187034
1684123517571324400,5.631324462890625,0.8489375268794596,8.617696820542216,-7.977592159843445
1684123517581294600,5.641294677734375,-0.8566764505684376,9.95333226108551,-7.529407078316807
1684123517591265500,5.651265625,-0.8525006261885165,11.1429254920125,-4.828348084948956
1684123517601236200,5.661236328125,0.3470166539141908,8.471886666116118,-1.1293581771295518
1684123517611207400,5.67120751953125,4.196756108790636,0.8880641070008277,2.5653648670256137
1684123517621178400,5.681178466796875,7.9623636110514395,-5.007984813392162,6.1439557597249745
1684123517631149600,5.691149658203125,8.54573691522479,-5.6810378039687865,9.526814821487665
1684123517641119500,5.701119384765625,7.555002707344293,-4.279047438508272,13.809639440447091
1684123517651090400,5.71109033203125,-0.9565922843039035,-3.382238884037733,15.0182974373281
1684123517661061600,5.7210615234375,-5.82754763109684,-4.454675808092952,12.990762851440905
1684123517671032300,5.7310322265625,-6.3882046610713,-6.151361652067303,10.976675776147841
1684123517681003500,5.74100341796875,-7.037970884084701,-8.061468128404021,7.371234870445728
1684123517690973400,5.750973388671875,-5.253091208350658,-10.101086535316705,3.9000270786225792
1684123517700944400,5.7609443359375,-1.7475825029969214,-11.380071867877245,0.9154917737610637
1684123517710915600,5.77091552734375,0.23749475091099737,-11.271209342098235,-1.8455919185891747
1684123517720886500,5.780886474609375,0.8724147024482488,-10.62581534281969,-3.0667627755627036
1684123517730857500,5.790857421875,-1.260768123346567,-8.404338732022046,-4.339976246723532
1684123517740828400,5.800828369140625,-5.221077528974414,-4.898334352105856,-5.418100568765402
1684123517750798300,5.81079833984375,-3.9230619172513483,-2.3542554342150686,-4.942538820013404
1684123517760769300,5.820769287109375,-0.6489525685429572,-1.8659294809579847,-4.055110672828555
1684123517770740500,5.830740478515625,-0.7274433369338512,-3.213306797221303,-3.5402781131789087
1684123517780711400,5.84071142578125,-3.5579099237203597,-4.476495425713062,-2.6428341834142803
1684123517790682600,5.8506826171875,-5.809907929509878,-5.654754777199029,-1.2304526261903346
1684123517800652500,5.860652587890625,-5.841434702152013,-6.37720220554173,-0.03226107826605439
1684123517810623500,5.87062353515625,-4.948226802521944,-7.0158917387455695,0.6671829294994474
1684123517820594400,5.880594482421875,-4.401546859973669,-8.09056562807262,1.2357551165126264
1684123517830565400,5.8905654296875,-3.6768788329720494,-9.404708783254026,2.036826730367541
1684123517840536300,5.900536376953125,-3.2683158599987623,-11.111719037365912,3.0397517267793415
1684123517850507500,5.910507568359375,-3.039377048248052,-13.330014680039882,3.878518718908727
1684123517860477400,5.9204775390625,-2.125978301243484,-15.889411578571796,4.610346554537117
1684123517870448400,5.930448486328125,-2.6573735808983443,-17.89233896194696,5.196752650535107
1684123517880419600,5.940419677734375,-4.329642484235763,-19.291088153529167,5.662264714437723
1684123517890390300,5.950390380859375,-6.0574342450916765,-20.535100372385976,5.967096387040614
1684123517900361500,5.960361572265625,-7.457870366847515,-21.496758123385906,6.057055474907159
1684123517910331400,5.970331298828125,-8.151727075999975,-22.008687070548532,5.953485210317373
1684123517920302300,5.98030224609375,-6.886427738964557,-21.817274856376645,5.4371770251572125
1684123517930273500,5.9902734375,-3.4288869457051154,-21.36319954776764,4.415466371993721
1684123517940244500,6.000244384765625,0.6928676981151104,-21.948088517200947,2.6835692216455933
1684123517950215400,6.01021533203125,2.6737320105031133,-22.28173361183405,1.3456760653033852
1684123517960186400,6.020186279296875,2.0954750264301896,-20.702278309011458,1.0951493988618255
1684123517970156500,6.030156494140625,1.630553914158046,-18.913954630303383,0.4647530622288584
1684123517980127500,6.04012744140625,1.5132529381185769,-17.275219455516336,-0.047425183519721026
1684123517990098400,6.050098388671875,0.5024059165358543,-15.611962418413162,0.05334697478413582
1684123518000069400,6.0600693359375,-1.5436273258551954,-14.095869288432597,0.231712075856328
1684123518010036500,6.070036376953125,-1.831273762640357,-12.851767053204775,0.2161976958602667
1684123518020006700,6.080006591796875,-0.5779854736551642,-11.361098287338018,0.6101797702953219
1684123518029977600,6.0899775390625,-0.9963540935888886,-9.807689279919861,1.6232232790090142
1684123518039948500,6.099948486328125,-4.205830518867075,-9.276914762511849,2.110465820943564
1684123518049919500,6.10991943359375,-6.196805306380987,-8.6200214640975,2.009847830288112
1684123518059890400,6.119890380859375,-6.410707584780455,-7.469331672060489,1.9083828674145042
1684123518069861600,6.129861572265625,-5.618033943045139,-5.894863510000706,1.881081603512913
1684123518079831600,6.13983154296875,-3.810435070502758,-3.848632991471886,2.097467953813076
1684123518089802500,6.149802490234375,-2.7281612275660034,-2.1205407863646744,2.6651854236930608
1684123518099773700,6.159773681640625,-3.2900726415157315,-1.3919430186986923,3.262819892930984
1684123518109744600,6.16974462890625,-4.542462228095531,-1.0383283182263374,3.993095238420367
1684123518119715600,6.179715576171875,-5.225422280180454,-0.12391571800410747,5.086091550901532
1684123518129685800,6.189685791015625,-5.145451502364874,1.0183657266497612,6.527898378443718
1684123518139656400,6.199656494140625,-3.468025654655695,3.1039333993107077,9.135155929303169
1684123518149627600,6.209627685546875,-2.4710890850037335,4.892849783214927,12.154172911089658
1684123518159598600,6.2195986328125,-2.049649094800651,7.199234043708443,16.23946186456084
1684123518169569500,6.229569580078125,2.520756202231347,10.969956112504004,20.914918020129203
1684123518179540700,6.239540771484375,9.052727236941456,17.942430149805546,24.512411766219138
1684123518189510700,6.2495107421875,16.49752360268235,33.904525856316084,26.053503728377816
1684123518199481600,6.259481689453125,14.952385580003261,50.50577286832333,25.572986987566946
1684123518209452500,6.26945263671875,-5.064351428258418,49.283757377219196,17.927527179706097
1684123518219423500,6.279423583984375,5.692549962586164,42.03534926049709,3.1062060204178095
1684123518229394700,6.289394775390625,-16.962073543554542,21.336790848791598,-1.9528736049175262
1684123518239364600,6.299364501953125,-17.394824324584008,7.890847942370176,-3.0870489000052213
1684123518249335600,6.30933544921875,-9.67658102006316,-4.0637803014963865,-4.688160738840699
1684123518259306800,6.319306640625,1.7842182892158627,-12.44164428356886,-6.540927371364831
1684123518269277700,6.329277587890625,10.508684170389175,-15.774377670681476,-8.019176800641418
1684123518279248400,6.339248291015625,7.202768647575378,-15.265923121631145,-8.576129715400933
1684123518289219600,6.349219482421875,7.018827207675576,-13.172525778257846,-11.416266632330418
1684123518299189500,6.359189453125,11.91330196174383,-0.9028823214262723,-18.19639555852413
1684123518309160400,6.369160400390625,1.4163479766368865,17.49921525790691,-25.58832951812744
1684123518319131600,6.379131591796875,-7.452796716845035,25.347885269761083,-28.137443507575988
1684123518329102600,6.3891025390625,1.5263292773127555,14.946452682822942,-23.24832472758293
1684123518339073500,6.399073486328125,6.002326690375805,2.1477298220634458,-11.90507890779972
1684123518349043700,6.409043701171875,3.0656323102280494,-5.721069370105862,-3.7526837232798336
1684123518359014400,6.419014404296875,-2.351211244213581,-10.390966137981414,1.7678899624884128
1684123518368985600,6.428985595703125,-4.730035302495956,-11.889557513540982,6.343683966821431
1684123518378956500,6.43895654296875,-4.040621251966059,-11.233636275029182,9.264737417984009
1684123518388927500,6.448927490234375,0.24299977806806564,-7.247495093530416,7.879825028574467
1684123518398897700,6.458897705078125,6.120903969961405,0.006490531063079834,-1.346830788296461
1684123518408868600,6.46886865234375,4.607831941367685,3.1427702027052637,-9.150433577933907
1684123518418839800,6.47883984375,0.29916531740427016,2.5445091260015964,-14.684948110771177
1684123518428810500,6.488810546875,-1.153054767602682,1.017812184420228,-17.468967419159412
1684123518438781400,6.498781494140625,1.034050787037611,-0.10781856968402861,-12.606909664571285
1684123518448751600,6.508751708984375,1.264923781721294,-1.4585761760354041,-2.96002586363554
1684123518458722600,6.51872265625,0.43912586901932954,-3.535073822534084,2.386007247784734
1684123518468693500,6.528693603515625,-0.4375307087823748,-4.95994588188827,5.00769079888165
1684123518478664700,6.538664794921875,-0.9998746689304708,-5.6819835603863,4.811997546389699
1684123518488635600,6.5486357421875,0.2128758579611778,-5.14903871320188,1.1215373473107815
1684123518498606600,6.558606689453125,1.4498074709072708,-3.1760218994438647,-2.9196862544625994
1684123518508576500,6.568576416015625,0.5542091690093278,-1.3889432523608207,-4.9848576203048225
1684123518518547500,6.57854736328125,-0.8190481461808085,-0.09061433690488338,-6.04946312008202
1684123518528518700,6.5885185546875,-1.4084215675517915,0.711354371920228,-6.167898360848427
1684123518538489600,6.598489501953125,-1.3162345745027064,1.123105035018921,-5.192029129144549
1684123518548460500,6.60846044921875,-1.1598796451866626,1.0874982995867728,-3.1480081033587455
1684123518558430700,6.6184306640625,-0.9469254612922667,0.6728834792286157,-0.7183177811920642
1684123518568401700,6.628401611328125,-0.6693333855316043,0.02144143195748329,1.13679570671916
1684123518578372400,6.638372314453125,-0.3158727065771818,-0.6174924313962459,2.2089888851463795
1684123518588343600,6.648343505859375,-0.012185235573351383,-1.1446189476907254,2.4005600892722607
1684123518598314500,6.658314453125,0.25410657075494525,-1.49170629222095,1.9098042785197495
1684123518608285700,6.66828564453125,0.04375000213831663,-1.7491209646105765,0.8671873231887817
1684123518618255600,6.678255615234375,-0.3505325165480375,-1.904012835636735,-0.23025427826344966
1684123518628226600,6.6882265625,-0.565742078153789,-1.7298264815539122,-0.9946054963558911
1684123518638197800,6.69819775390625,-0.45457478256374595,-1.3112328206926585,-1.3862415921866893
1684123518648168400,6.70816845703125,-0.3900219386324286,-0.9108972855776548,-1.499259776340425
1684123518658139400,6.718139404296875,-0.8299979947403073,-0.5847790793180465,-1.4430562430813907
1684123518668109600,6.728109619140625,-1.1494894763365386,-0.3668032678693533,-1.1961971592366694
1684123518678080500,6.73808056640625,-1.3880584323503076,-0.3530249178856611,-0.8778691684618591
1684123518688051500,6.748051513671875,-1.5828686183974146,-0.5409603958576917,-0.49554246050715445
1684123518698022700,6.758022705078125,-1.7799876659087837,-0.9242091870933771,-0.08418956455439329
1684123518707993600,6.76799365234375,-1.5884702377967534,-1.5444553011119364,0.3207137168675661
1684123518717964500,6.777964599609375,-1.5059813396804034,-2.176643197336793,0.666304977621138
1684123518727934700,6.787934814453125,-1.3620222199484706,-2.7280197732686995,0.712016342960298
1684123518737905400,6.797905517578125,-0.9723159231364726,-3.00670695078969,0.6351341788098216
1684123518747876600,6.807876708984375,-0.4239207011029124,-3.0491888326883316,0.31320027249753474
1684123518757847600,6.81784765625,-0.21013795742988586,-2.8017858512252567,-0.08015139507949352
1684123518767818800,6.82781884765625,-0.24689269385337828,-2.328989475533366,-0.3410314054921269
1684123518777788700,6.83778857421875,-0.34033874705284833,-1.7163614353030918,-0.4869274846360087
1684123518787759600,6.847759521484375,-0.6799976951479911,-1.2144383338481186,-0.5689958192527294
1684123518797730600,6.85773046875,-0.9076870913594961,-0.7375012050896883,-0.4304401659995317
1684123518807701500,6.867701416015625,-1.082764841324091,-0.4222679654598236,-0.15064327367097138
1684123518817672400,6.87767236328125,-1.0211094723999499,-0.26562895850539203,0.2825754171311855
1684123518827642600,6.887642578125,0.17875731526017188,-0.021797990310192108,0.8669578983470797
1684123518837613600,6.897613525390625,1.8110884682238102,0.3881546834558248,1.784585076701641
1684123518847584500,6.90758447265625,2.0661688524469732,0.7786784341305494,2.5331737852558494
1684123518857555700,6.9175556640625,1.5665376613214612,0.9746166012942791,2.7295436218351123
1684123518867526700,6.927526611328125,0.8613950035229325,0.9887357275396584,2.2296359518557787
1684123518877496600,6.93749658203125,0.5253054383471608,1.0455898336619138,1.4485516256272792
1684123518887467500,6.947467529296875,0.2646909470029175,1.224481004434824,0.6342039122223854
1684123518897438500,6.9574384765625,-0.3743750182978809,1.5062275695264338,0.1308355803951621
1684123518907409700,6.96740966796875,-1.1073965937554835,1.6562784302622078,-0.07556026789695024
1684123518917380600,6.977380615234375,-1.3515911345660685,1.838753889262676,-0.11076222192049026
1684123518927351600,6.9873515625,-1.161688155913353,2.0507284144699574,0.13976239869445561
1684123518937321700,6.99732177734375,-0.8801922045819461,2.0621172389686104,0.8654796424880623
1684123518947292700,7.007292724609375,-0.742554835217446,1.7203361841529607,1.7984993280246853
1684123518957263400,7.017263427734375,-0.6270977334789931,1.0029361023277044,2.4898674352318046
1684123518967234600,7.027234619140625,-0.08876870903819799,0.005586860221624374,2.754401291976869
1684123518977205500,7.03720556640625,0.8305081362195312,-1.3014245433837175,2.505044253836572
1684123518987175400,7.047175537109375,1.9060572009459136,-2.5150585751116274,2.096181421133876
1684123518997146600,7.057146728515625,2.6897031943559644,-3.368775591352582,1.9621376923471687
1684123519007116800,7.06711669921875,2.694241422307491,-3.6530198184788225,2.244046462263167
1684123519017088000,7.077087890625,1.7819462526306509,-3.1696038490951057,2.5614804268077016
1684123519027059000,7.087058837890625,0.7387268013618886,-1.846352089306712,2.6962045390740035
1684123519037030000,7.09702978515625,0.31534824431166053,-0.33515374563038347,2.72441911842823
1684123519046999800,7.106999755859375,0.22643545062765477,0.9096265349894761,2.6447730425223708
1684123519056970800,7.116970703125,0.398963954500854,1.790221036761999,2.5204580960676073
1684123519066942000,7.12694189453125,0.9798676536902785,2.4985721352130175,2.381576864121854
1684123519076913000,7.136912841796875,1.883984923738986,3.1762533701121805,2.215826329950988
1684123519086884000,7.146884033203125,2.520138362593949,3.8041304174005983,1.8531497866228221
1684123519096854000,7.15685400390625,2.644214531856775,4.332527099761367,1.1209867276906966
1684123519106825000,7.166824951171875,2.06409043873772,4.690136422827839,0.217073601911962
1684123519116796000,7.1767958984375,1.0750012215852738,4.7802831422209735,-0.750730104497075
1684123519126766800,7.186766845703125,0.03712050099596381,4.645379581734538,-1.695353718587756
1684123519136737800,7.19673779296875,-0.4109150890573859,4.605983390891551,-2.5552526383340357
1684123519146708000,7.2067080078125,0.24945786816626786,4.752636425882578,-2.9911659750476476
1684123519156679000,7.216678955078125,1.1900272384300827,4.3773675274848936,-3.0248835357323287
1684123519166649900,7.22664990234375,1.3720621140561997,2.939270075854659,-2.583825237345695
1684123519176621000,7.23662109375,0.5414850042536854,0.9976496863573789,-1.599943964099884
1684123519186591700,7.246591796875,-0.20603607506901025,-0.7616735233157873,-0.5526569711312651
1684123519196563000,7.25656298828125,-0.24782822113782166,-1.9841759211540222,0.43534898082911966
1684123519206532900,7.266532958984375,-0.15622048928141594,-3.108054278632998,1.797255757704377
1684123519216503800,7.27650390625,-0.3439943469509482,-4.31924150173068,3.5001284736201166
1684123519226475000,7.28647509765625,-1.532299876154959,-5.147162397935986,4.981401926892995
1684123519236446000,7.296446044921875,-3.0832685046836734,-5.507994190180302,5.99567600031495
1684123519246417000,7.3064169921875,-4.091871838992834,-6.070428751221299,6.719999743923545
1684123519256387000,7.316386962890625,-4.707722056140005,-6.732067782858014,7.360083361834287
1684123519266358000,7.32635791015625,-5.39454784374237,-7.510910467639565,7.840378568848967
1684123519276328700,7.33632861328125,-6.364843659228086,-8.447925360292196,8.130730465200543
1684123519286300000,7.3462998046875,-7.52453508836627,-9.296950419324636,8.455958444622159
1684123519296270800,7.356270751953125,-8.361542377346753,-10.10661494334936,8.662930046975612
1684123519306240800,7.36624072265625,-8.847637795072794,-10.095583846247196,8.382146773958207
1684123519316212000,7.3762119140625,-7.838293579268455,-9.926969154816865,7.838164984452724
1684123519326183000,7.386182861328125,-4.021666083866357,-10.796210487926006,6.799199537366628
1684123519336154000,7.396154052734375,0.5912284015879035,-10.744407819974422,4.763927050703764
1684123519346124800,7.406124755859375,1.0230039078444242,-9.593753683772682,2.7820921397179363
1684123519356094700,7.4160947265625,-3.1014556110203264,-8.704055253568292,2.155648047842085
1684123519366066000,7.42606591796875,-6.293529650598764,-8.787872769939899,2.537046242775023
1684123519376036900,7.436036865234375,-6.415256918647885,-10.202070875066518,3.3556425535351035
1684123519386008000,7.446008056640625,-2.3411261957898732,-12.009437107896805,3.988268841177225
1684123519395979000,7.45597900390625,17.020725639009473,-11.515373487770557,2.8681840307623148
1684123519405950000,7.465949951171875,30.065047062158584,-2.1325380981504916,-2.48816969140321
1684123519415920000,7.475920166015625,3.050791591709852,8.453599314275383,-5.333034513637423
1684123519425890800,7.485890869140625,-5.640421715942025,10.999109726274012,-2.801060459560156
1684123519435861800,7.49586181640625,-17.417156567901372,12.393325366079807,-4.997542329832911
1684123519445833000,7.5058330078125,-13.369413793492317,10.11135541587472,-13.090802603816986
1684123519455804000,7.515803955078125,4.043094364081323,2.4230659355908633,-22.473933761513234
1684123519465773800,7.52577392578125,16.46163980387449,-4.1847371696949,-26.97277429002523
1684123519475745000,7.5357451171875,11.13509056060314,-5.308373535111547,-23.190040880918502
1684123519485716000,7.545716064453125,-4.94870084977448,-0.3915793972074985,-14.133262322759627
1684123519495687000,7.55568701171875,-6.065784724807739,7.2844964981913565,-10.192263766801357
1684123519505657900,7.565657958984375,4.410064220689237,10.763633913969993,-12.894653424251079
1684123519515628800,7.57562890625,8.916230854305624,6.307464652448893,-14.480480015671253
1684123519525599000,7.585598876953125,8.97386821976006,0.8590975402355193,-7.8957532500684255
1684123519535570000,7.59556982421875,6.545666090324521,-3.2150960187256334,0.3208160081982612
1684123519545540900,7.605540771484375,0.887395998480916,-5.43000143443942,5.942473402437567
1684123519555512000,7.615511962890625,-1.0566028105854988,-6.119738433313369,8.281849831950664
1684123519565482800,7.625482666015625,-0.11165449458509683,-5.089962839376926,7.711413166239857
1684123519575453000,7.635452880859375,1.2771943574905396,-0.7582277667760848,4.279627868744731
1684123519585424000,7.645423828125,1.384543263836205,5.198973249194026,0.6410358040690421
1684123519595394800,7.655394775390625,0.07165420036911964,9.534389640656114,-1.4820295323371886
1684123519605366000,7.665365966796875,-0.45455052490532394,11.228962437999249,-2.8323353032678362
1684123519615337000,7.6753369140625,-1.7568632493004201,9.817925427252053,-3.6699803056299682
1684123519625307000,7.685306884765625,-3.1758202393919226,6.932005833312869,-3.6327515219539404
1684123519635278000,7.695278076171875,-3.008230799356103,4.290201869729161,-2.8359903186440465
1684123519645248800,7.705248779296875,-1.5719637780234217,2.082786517509818,-1.1953747369378804
1684123519655219700,7.7152197265625,-0.4740791089788079,0.13159750467836856,0.804002260479331
1684123519665191000,7.72519091796875,-0.6161112061709165,-1.2945704397052527,2.7020494657099245
1684123519675160800,7.735160888671875,0.07166969019919633,-1.72660401237607,3.7957191474080085
1684123519685132000,7.745132080078125,1.9588415734112261,-1.2478875989854334,3.616679508075118
1684123519695103000,7.75510302734375,3.0480116056025026,-0.9832184254229068,1.0766016425192355
1684123519705074000,7.765073974609375,3.63495224686861,-0.8773352077156304,-2.702611775767803
1684123519715044900,7.775044921875,4.025523928338289,-0.4406698835909366,-6.23831454385519
1684123519725015800,7.785015869140625,3.46021994934082,0.28326632200479507,-9.51712578664422
1684123519734985700,7.79498583984375,3.223352974939346,1.017646180203557,-13.075530215883255
1684123519744957000,7.80495703125,3.2447382927954194,1.856477177479863,-16.452048968708514
1684123519754927900,7.814927978515625,3.3273955332159995,3.1301223180562254,-18.715737412291762
1684123519764899000,7.824899169921875,3.0915210769832133,4.357409027561545,-19.664057542812824
1684123519774870000,7.8348701171875,3.1585692448616025,5.664164410579204,-19.075925645935534
1684123519784840000,7.84483984375,3.635898003286123,6.678513302803039,-18.10471446917057
1684123519794811100,7.85481103515625,3.7022611115097996,7.75322167892158,-16.22079574253559
1684123519804781800,7.86478173828125,4.507205036753416,8.775400241857767,-13.546060984730719
1684123519814752800,7.874752685546875,4.863510876005888,9.498190784549713,-11.260741724097729
1684123519824724000,7.884723876953125,4.878918873018026,10.008096116930245,-9.581811317044496
1684123519834694000,7.89469384765625,4.963941089004278,10.238868866109847,-8.440958443889022
1684123519844664800,7.904664794921875,4.140085542541742,9.644565002599357,-7.885532300305366
1684123519854636000,7.914635986328125,3.3708652571082114,7.599594713264703,-7.732347817718982
1684123519864607000,7.92460693359375,4.956792386293411,7.766663344296813,-6.602870325058698
1684123519874578000,7.934577880859375,6.196113232463598,10.621603278082608,-3.1984792304456233
1684123519884547800,7.9445478515625,1.8730103791296482,11.829497889375686,1.9318752405524253
1684123519894518800,7.954518798828125,0.5411281536400318,11.419092211145163,7.709345127794146
1684123519904490000,7.964489990234375,2.68805133549571,8.732463601928949,13.836509911715984
1684123519914461000,7.9744609375,0.3093313221096992,1.5764064366459845,17.314177839463948
1684123519924432000,7.984431884765625,-2.485823128277063,-3.5064176368921993,18.722764534449578
1684123519934402800,7.99440283203125,6.109483581280708,-4.693184704482555,20.72006180298328
1684123519944373000,8.004373046875,11.636522663670778,-2.89150528511703,20.407723700273035
1684123519954343700,8.01434375,1.9221429510891437,-3.684333825153112,11.805195807290076
1684123519964315000,8.02431494140625,-6.744317608100175,-5.093764569747448,1.6747168810114264
1684123519974285800,8.034285888671874,-11.708307796943187,-6.398416843006014,-2.3655127412885424
1684123519984257000,8.044257080078125,-10.524593687182664,-8.306432484543324,-4.434553642040491
1684123519994227000,8.05422705078125,-4.668890805703401,-10.144150601017474,-5.831904657262563
1684123520004198000,8.064197998046875,0.39463293955922124,-11.859607780957221,-5.991639876666665
1684123520014169300,8.07416943359375,1.6472200945377349,-13.095366550731658,-4.641851699869334
1684123520024140300,8.084140380859376,-0.5193301633298397,-12.462013702380656,-2.4761861158818004
1684123520034111500,8.094111572265625,-4.489241510039568,-8.554013160660862,-0.2397995207220316
1684123520044081400,8.104081298828126,-7.821876697474718,-2.5183465107411145,1.7140185254387557
1684123520054052400,8.11405224609375,-9.118359108281135,2.4111340902566907,2.8910099028155205
1684123520064023600,8.1240234375,-9.021436026620865,6.941952642309666,4.306477881747484
1684123520073994500,8.133994384765625,-8.293983337336778,11.309241843372583,5.437259442743659
1684123520083965400,8.14396533203125,-7.753001314169168,13.799821810787915,6.295376155248284
1684123520093936400,8.153936279296875,-7.564940748512744,11.47903843806386,6.731480338358879
1684123520103906300,8.16390625,-5.763842928427457,7.321779057881236,6.984693467405438
1684123520113877500,8.17387744140625,-2.2177286564409733,3.223972568142414,7.2719544120043516
1684123520123848400,8.183848388671874,0.0676209993302822,-1.2070061380207537,7.6110887517035
1684123520133819400,8.1938193359375,-1.1148813965529203,-7.43415631378293,8.52938199275136
1684123520143790600,8.20379052734375,-8.001128518253564,-12.893902898144722,11.181040995395183
1684123520153760500,8.213760498046875,-15.24101547486782,-25.109935760819912,18.10010843667984
1684123520163731500,8.2237314453125,-10.516014074885845,-58.52810199551582,30.42528088850975
1684123520173702400,8.233702392578126,-0.8871113363206387,-73.94943545908927,29.085673621726034
1684123520183673300,8.24367333984375,-8.245417751610278,-38.32495394237041,14.216853629159926
1684123520193644500,8.25364453125,-10.506122795468569,-15.809182442080974,4.338943396544456
1684123520203614500,8.263614501953125,-16.542022085100413,-12.048736852627991,-3.569951659169793
1684123520213585400,8.27358544921875,-19.49845313911438,-11.003019008672236,-9.606770401734114
1684123520223556600,8.283556640625,-20.38925047047138,-12.585495120620728,-11.651302884173393
1684123520233527300,8.29352734375,-15.960910296118259,-18.405887034744023,-8.270456331276893
1684123520243498500,8.30349853515625,-8.402477029803395,-24.307062212109564,-2.7185268455192446
1684123520253468400,8.313468505859374,-5.1348734097272155,-27.39949631228447,1.2429714776322245
1684123520263439400,8.323439453125,-3.954662924173474,-27.566643853771684,3.584483750130236
1684123520273410600,8.33341064453125,-4.439622323606908,-24.907515830421445,4.4743350328087805
1684123520283381500,8.343381591796875,-5.482283994862437,-22.16204690970182,4.378865949349105
1684123520293352400,8.3533525390625,-6.477056079956888,-20.466215636730194,4.11572354696244
1684123520303323400,8.363323486328126,-6.122173551505804,-19.0481281229496,4.534439372898638
1684123520313293600,8.37329345703125,-4.742252394512295,-17.704202408444882,4.9913610108494755
1684123520323264300,8.38326416015625,-2.962955487346649,-16.679535535824296,5.139760597246885
1684123520333235500,8.3932353515625,0.9700666829049587,-15.734430275696516,4.503792597961426
1684123520343206400,8.403206298828126,10.17595794416666,-14.704743529087304,3.2147023432329296
1684123520353177600,8.413177490234375,10.328893420428036,-12.826403479367494,2.455114394019544
1684123520363147500,8.4231474609375,-4.768918283119797,-9.22411490021646,2.01918527521491
1684123520373118500,8.433118408203125,-7.138759993523359,-5.850556750762462,2.1797627906620503
1684123520383089700,8.443089599609374,-3.3343782317101955,-4.9093981824338435,2.9561192115858197
1684123520393060400,8.453060302734375,-4.760805996073782,-3.664377078795433,3.101972912892699
1684123520403031300,8.46303125,-7.630255224466324,-2.7482126664698123,3.76885072196573
1684123520413001500,8.47300146484375,-10.76977606998682,-1.2268570859163999,5.3097401472896335
1684123520422972400,8.482972412109374,-12.970580479633808,1.092093226161599,7.90169491507709
1684123520432943400,8.492943359375,-11.856890923213959,7.218644846621156,11.62243919326067
1684123520442914600,8.50291455078125,-9.54166869174838,17.04542636502385,16.696735676950215
1684123520452885500,8.512885498046876,-7.08351799877286,26.091182009387015,22.38094801930189
1684123520462855400,8.52285546875,2.8133003479301926,33.154107301986215,24.67440148655176
1684123520472826400,8.532826416015626,15.240657747471332,25.19278121728897,19.88538558729887
1684123520482797300,8.54279736328125,21.484506544578075,11.867210072654485,17.458463560801743
1684123520492768500,8.5527685546875,11.019676713484525,10.224738633948563,18.22110563688874
1684123520502739500,8.562739501953125,-10.82908166091442,11.488875941467285,15.634519118136167
1684123520512710700,8.572710693359374,-16.401389625573156,14.147609997063874,12.241763516259192
1684123520522680600,8.5826806640625,-9.648203651362657,24.314165322113034,7.912406863227486
1684123520532651500,8.592651611328124,-2.7022061175763605,32.25224146412611,-0.5142369318440556
1684123520542622500,8.60262255859375,-7.845548664963245,31.576744587528704,-2.5411054550379513
1684123520552593400,8.612593505859374,-1.791029868926853,30.40125703884363,-6.413263114482164
1684123520562564400,8.622564453125,1.4577112297691404,22.03448085249662,-20.36123550534248
1684123520572534500,8.632534423828124,-1.4228960831061004,7.358051563745737,-36.783630509543414
1684123520582505500,8.64250537109375,-3.0644647277534007,-3.9880660120815037,-40.2846874961853
1684123520592476400,8.652476318359374,4.444267226803302,-4.910080319479108,-26.02337747018337
1684123520602447600,8.662447509765625,4.2342905974149705,1.2255202843546866,-10.385193399798869
1684123520612418300,8.672418212890625,-0.14506751936525106,0.8213894486099481,-2.4339754521399737
1684123520622388500,8.682388427734375,-1.9489917950481175,-2.0450661509245633,4.481969473209977
1684123520632359400,8.692359375,-3.086695264261961,-7.134583584621549,10.593809262228012
1684123520642330400,8.702330322265626,-4.092667665545642,-12.971729649668932,12.794141378188133
1684123520652301600,8.712301513671875,2.1647277186155316,-16.571387295794487,10.977775846344231
1684123520662272500,8.7222724609375,9.070788963332772,-17.135621599733827,5.160398896127939
1684123520672242400,8.732242431640625,7.8873589312106365,-9.145651019832492,-3.916767785543203
1684123520682213600,8.742213623046876,3.2262825986504553,1.566703957799077,-12.092284902453422
1684123520692184600,8.7521845703125,4.237790714490413,6.852663416528701,-17.435482498186825
1684123520702155300,8.7621552734375,5.8782964060813185,7.962682760003209,-18.3879106485486
1684123520712126500,8.77212646484375,-0.6591168196827173,5.074384161973,-14.266650217986106
1684123520722096400,8.782096435546874,-3.2848060992896553,0.2976420533597469,-7.4186518706589935
1684123520732067300,8.7920673828125,-1.2812363263577222,-4.440811533391475,-2.9041806422948837
1684123520742038500,8.80203857421875,-1.4408838674783706,-8.604025438064337,-1.0357990920096636
1684123520752009500,8.812009521484375,-0.8815385046243667,-8.579573718374967,-0.2097083338409662
1684123520761980400,8.82198046875,-0.41054947061538694,-4.683834692335129,-0.2790262002170086
1684123520771951400,8.831951416015626,-1.084881395086646,-1.986688196235895,-0.43299744926691053
1684123520781921300,8.84192138671875,-1.1986644261330366,-0.8708546135246753,-0.009632920742034912
1684123520791892500,8.851892578125,-2.2881728964984416,-1.041850062611699,-0.20974282063245772
1684123520801863400,8.861863525390625,-0.8384604103982448,-0.2797761418014765,1.1593097363442182
1684123520811834400,8.87183447265625,0.08434592415988444,0.6420709923356771,3.253139625915885
1684123520821805600,8.8818056640625,0.5723877997785807,1.5227520033478736,4.003101084128022
1684123520831775500,8.891775390625,0.23884324291050432,1.9905869572401045,3.3053865305036303
1684123520841746700,8.90174658203125,-0.47003743237257,2.369447158128023,1.130047986024618
1684123520851717400,8.91171728515625,-0.534074143475294,2.3860241989195345,-0.93571082431674
1684123520861688300,8.921688232421875,-0.2820861723095178,1.7024603357225656,-2.3917478372633454
1684123520871659500,8.931659423828124,0.15328677391707896,0.6830033067047595,-3.587836859950423
1684123520881629400,8.94162939453125,0.8444149348884821,-0.5328606760323047,-3.684141517451405
1684123520891600400,8.951600341796874,1.387961840108037,-1.2932540964096784,-2.881897498816252
1684123520901571600,8.961571533203125,1.6010755984783172,-1.3173311375677585,-1.7562550542742013
1684123520911542500,8.97154248046875,1.2539099280148744,-0.7543757675230502,-0.8309756076008081
1684123520921513500,8.981513427734376,0.8780752124279737,0.16460604031085968,-0.18590777153670787
1684123520931483400,8.9914833984375,0.43519174444079395,0.7224369069486856,-0.16361702927350996
1684123520941454300,9.001454345703126,-0.023605331993103027,0.7392050863981247,-0.5449094257444143
1684123520951425500,9.011425537109375,-0.283596576872468,0.6216501355975866,-0.3148351802229881
1684123520961396500,9.021396484375,-0.4249380614519119,0.3535954112499952,0.03532499588131904
1684123520971367400,9.031367431640625,-0.6078051501184701,-0.0456312858402729,0.162962364757061
1684123520981337600,9.041337646484376,-0.9763672443538903,-0.4064735994786024,0.4787696048825979
1684123520991308500,9.05130859375,-0.6475239970445632,-0.5539636698156595,1.061574169257283
1684123521001279200,9.061279296875,-0.35318595366626976,-0.4355599932312965,1.6378420253396033
1684123521011250700,9.071250732421875,-0.5901508354842663,-0.0576654225051403,1.961803345826268
1684123521021221600,9.0812216796875,-0.7191250059217215,0.5715501799106597,2.1783938403964043
1684123521031192800,9.09119287109375,-0.7465177474990486,1.0850836396604775,2.2621879758924246
1684123521041162800,9.101162841796874,-0.6186071146398783,1.3109785536706446,2.233354095596075
1684123521051133700,9.1111337890625,-0.4252677317976951,1.183555119806528,1.989426096767187
1684123521061105000,9.12110498046875,0.25651246285289525,0.808110864841938,1.9940023186415432
1684123521071075600,9.13107568359375,0.5007663326352835,0.3551788810491562,2.2698756077855826
1684123521081046500,9.141046630859375,0.473362777402997,-0.005633037450909614,2.2727976327121255
1684123521091016700,9.1510166015625,0.3430184876561165,-0.08966507335603237,1.910223380714655
1684123521100987600,9.160987548828125,0.5462801295757294,0.1506359671473503,1.335256670358777
1684123521110958600,9.17095849609375,0.7368114692598581,0.6153291158825158,0.6751724669486284
1684123521120929800,9.1809296875,0.599828764411807,1.183752688205242,0.0642623365521431
1684123521130900700,9.190900634765624,0.6177630650311708,1.6179121669888497,-0.42188042744696136
1684123521140870700,9.20087060546875,0.6767021607339382,1.7607605489999054,-0.574873186853528
1684123521150841600,9.210841552734376,0.6919628582298756,1.6210305912703276,-0.34182898561060426
1684123521160812500,9.2208125,0.532229976913333,1.4996131198227405,0.22432488821446894
1684123521170783700,9.23078369140625,0.4145344485983252,1.479289293718338,0.5723837081253528
1684123521180754700,9.240754638671875,0.33810090499818324,1.6202198594093322,0.7388339149981736
1684123521190724600,9.250724609375,0.32414632166475055,1.9666683215141296,0.699168259564042
1684123521200695800,9.26069580078125,0.06611702450811863,2.2149656214684246,0.5596007989197969
1684123521210666800,9.270666748046875,-0.28904315184056756,2.2259709996074437,0.7613169649630784
1684123521220637400,9.280637451171875,-0.5475076255440712,2.2374399036049843,1.291898590147495
1684123521230608600,9.290608642578125,-0.5350827359959482,2.203399686837196,1.3705892650246618
1684123521240578600,9.30057861328125,-0.3553828791886568,2.06586753141284,1.0214438189208508
1684123521250549500,9.310549560546875,-0.3266267403036356,1.790083089596033,0.6684469580858945
1684123521260520700,9.320520751953126,-0.1409498549133539,1.4687678997039795,-0.1019464627802372
1684123521270491600,9.33049169921875,-0.06812310363352299,0.8919096765130757,-1.6423083570986985
1684123521280462800,9.340462890625,-1.5965893929749726,0.15214052649140358,-2.6130536699175835
1684123521290432800,9.350432861328125,-2.1269073987871407,-0.16491700595617292,-2.2147440876722335
1684123521300403700,9.36040380859375,-0.39342531733512875,-0.153385558116436,-1.238559798669815
1684123521310374700,9.370374755859375,0.7154226442724466,0.3875280759900808,0.2590864049941301
1684123521320345600,9.380345703125,0.4473611979231238,1.6260270843833684,0.5873053829252719
1684123521330316500,9.390316650390625,0.289945069116354,2.683191620504856,-0.5492495007753372
1684123521340286700,9.40028662109375,0.42315059351325035,3.548854510605335,-1.2351309932649135
1684123521350257700,9.410257568359375,0.6116036656185985,3.975517496153712,-2.069737066322565
1684123521360228900,9.420228759765624,0.8643634979397058,3.216186152049899,-2.5338725811749696
1684123521370199800,9.43019970703125,1.0664677865177392,1.6450187851011753,-1.9394190800607203
1684123521380170500,9.44017041015625,1.0329644531056283,0.26013971343934533,-1.7246476176112888
1684123521390140700,9.450140625,0.5939361992418766,-0.8626900117695331,-1.6174124007731676
1684123521400111600,9.460111572265625,0.39530660103708504,-1.5919681629151106,-1.0766712006241081
1684123521410082600,9.47008251953125,0.5258683329269289,-1.9923118813365697,-0.80143036416471
1684123521420053800,9.4800537109375,0.5498682171955704,-1.992151137816906,-0.8692799115538596
1684123521430024700,9.490024658203126,0.55681613663733,-1.9544798710703848,-1.179090541613102
1684123521439994600,9.49999462890625,0.6349532692849635,-1.4885849453300237,-1.522960093140602
1684123521449965800,9.5099658203125,0.960733621892333,-0.8243523900687694,-2.0269027177244423
1684123521459936500,9.5199365234375,0.9636249594196676,-0.37784547088742254,-2.530190677791834
1684123521469907700,9.52990771484375,0.6570727466344833,-0.05056231250166893,-2.8830039987534284
1684123521479878700,9.539878662109375,0.5064940626323223,0.12824585616290568,-3.105965781921148
1684123521489849600,9.549849609375,0.5039832488551735,0.02975684036016464,-3.227036631888151
1684123521499819800,9.55981982421875,0.668621437869966,-0.1955874540299177,-3.1886779673993586
1684123521509790700,9.569790771484374,0.8656544145330786,-0.4631581942528486,-2.9435031833797694
1684123521519761700,9.57976171875,0.7092784424290061,-0.6287538301229476,-2.5573306136518714
1684123521529732600,9.589732666015625,0.25260230367183684,-0.6958604501903056,-2.096972279250622
1684123521539703600,9.59970361328125,-0.06290829159468413,-0.6929232276946306,-1.7527391551077365
1684123521549673500,9.609673583984375,-0.04025163862854242,-0.5896604216188192,-1.4485405197113752
1684123521559644700,9.619644775390626,-0.04790156885981559,-0.46722997373640535,-1.2702099054306746
1684123521569615600,9.62961572265625,0.03438976085782051,-0.32859248741865155,-1.0832213529199362
1684123521579586800,9.6395869140625,0.09355126713961362,-0.23917642038762568,-0.8829992248266935
1684123521589557800,9.649557861328125,0.06659662471860647,-0.21936989615559577,-0.7439251006573439
1684123521599527700,9.659527587890626,0.07744915038347244,-0.2077215439379215,-0.6650988167017697
1684123521609498600,9.66949853515625,0.09437456622123717,-0.19670213727355002,-0.5863602110296487
1684123521619469600,9.679469482421876,0.29095073902755975,-0.22590718896985051,-0.6007026246368885
1684123521629440500,9.6894404296875,0.40433585679754613,-0.47220717762708664,-0.6885059957742691
1684123521639411700,9.69941162109375,0.08952303453683852,-0.7046715331554413,-0.7968272542834282
1684123521649381600,9.709381591796875,0.008930179300159215,-1.0435609581828116,-0.8917606234312057
1684123521659352800,9.719352783203124,0.07178513327240943,-1.2697738521009683,-0.7902864543378353
1684123521669323800,9.72932373046875,0.13944734139591455,-1.4666864172548055,-0.6660556790351867
1684123521679294500,9.73929443359375,0.13741788139492273,-1.5132067608892916,-0.4636772496908903
1684123521689265700,9.749265625,0.3697980657711625,-1.4877069934517144,-0.17425532766580581
1684123521699235600,9.759235595703124,0.48575171885490415,-1.4514812493383884,0.27964637794196606
1684123521709206500,9.76920654296875,0.3606593582868576,-1.4579735339671374,0.6884469590634107
1684123521719177700,9.779177734375,0.22521073113828896,-1.5094120447814463,0.9769260472804308
1684123521729148700,9.789148681640626,-0.1632500956572592,-1.5434107604950666,1.018297045327723
1684123521739119900,9.799119873046875,-0.21292349649518727,-1.6675573646456001,1.086224334128201
1684123521749089800,9.80908984375,-0.47967517542019483,-1.6929489955335855,1.3072843753278254
1684123521759060700,9.819060791015625,-0.712037824139744,-1.7404910834312437,1.329614865079522
1684123521769031700,9.82903173828125,-0.6297708982110023,-1.756100740495324,1.1221429119884967
1684123521779002600,9.839002685546875,-0.3808487443566322,-1.6440163300603627,1.1234881891176103
1684123521788973600,9.8489736328125,-0.4351156104646623,-1.6158195786237717,0.9745572723224758
1684123521798943700,9.85894384765625,-0.7529049643181264,-1.7318267154604197,0.7067483394294977
1684123521808914700,9.868914794921874,-0.8190309027850627,-1.7873206391453742,0.4847364043325185
1684123521818885600,9.8788857421875,-0.6731131963312625,-1.8330296663969754,0.28886545718610285
1684123521828856800,9.88885693359375,-0.8185375663101673,-1.7349088993847368,0.12120821261107921
1684123521838827500,9.89882763671875,-0.9272834799721836,-1.5354770448863506,0.11738485493063926
1684123521848797400,9.90879736328125,-0.9846937586724758,-1.2750626061588526,0.1416740775346756
1684123521858768600,9.9187685546875,-0.909159648130089,-0.9792658884048462,0.14964257219582794
1684123521868739600,9.928739501953125,-0.7436267022326588,-0.7062678624361753,0.07127922957688569
1684123521878710800,9.938710693359376,-0.4605062184393406,-0.5260726233273745,0.05667115077078342
1684123521888681700,9.948681640625,-0.007650076361745596,-0.5408002368599176,0.216046012429893
1684123521898651600,9.958651611328126,0.09340425988435745,-0.8336310905456542,0.4989353178158402
1684123521908622800,9.968622802734375,-0.1407856773275882,-0.997905122423172,0.894376651148498
1684123521918593500,9.978593505859376,-0.5889467203915119,-1.0610106901556253,1.3461764160409568
1684123521928564500,9.988564453125,-0.9414975910246371,-0.9517074348717928,1.471543794158101
1684123521938535700,9.99853564453125,-0.8787352837719022,-0.7374953598707914,1.617456239914894
1684123521948505600,10.008505615234375,-0.714042734221369,-0.6037503217697143,1.4043854439035057
1684123521958476500,10.0184765625,-0.37586627976894377,-0.32975217884778973,1.031592872491479
1684123521968447700,10.02844775390625,-0.284653976970911,-0.059199792465567586,0.697504710265994
1684123521978418700,10.038418701171874,-0.4928818629957735,0.15134090054631233,0.5275955951109528
1684123521988389600,10.0483896484375,-0.9968600703496485,0.386888024520874,0.4560764192983508
1684123521998359800,10.05835986328125,-1.2912602922439576,0.5278519079595804,0.3987722313210368
1684123522008330500,10.06833056640625,-1.1400970863521098,0.6277940451800823,0.5005816237181425
1684123522018302000,10.078302001953125,-0.9969944373190402,0.6708604489684105,0.741240976139903
1684123522028273200,10.088273193359376,-0.8155798855483531,0.7356207981705665,1.120932074894011
1684123522038244000,10.098244140625,-0.4519955797255039,0.806350284910202,1.636661875644326
1684123522048214300,10.10821435546875,-0.3753880677979439,0.9762409876257181,2.1851316242188212
1684123522058185200,10.118185302734375,-1.1341126781802624,0.8581751646935939,2.027043295238912
1684123522068156000,10.128156005859376,-2.0108346493683755,0.4910872346639633,1.1420564037263392
1684123522078127000,10.138127197265625,-2.35098430358991,0.031764088529348374,0.14351561374813318
1684123522088098000,10.14809814453125,-1.7688158451616762,-0.21716098793447017,-0.4086912755280733
1684123522098068000,10.15806787109375,-0.9542858339924365,-0.3387795349121094,-0.3238914701208472
1684123522108039200,10.1680390625,-0.35383798783421516,-0.29622867943048475,0.4009349623128772
1684123522118010000,10.178010009765625,-0.4788742343008518,-0.3038338937371969,0.8560288003146648
1684123522127981300,10.187981201171874,-0.500668790544942,-0.22986147955358027,0.7748308187916875
1684123522137952000,10.197951904296875,-1.0750679301459343,-0.06622106940448284,0.16067337703704834
1684123522147922000,10.207921875,-1.4593269944027065,0.11882336330115795,-0.4853206339612603
1684123522157893000,10.21789306640625,-1.2338017904877663,0.18722119222283362,-0.9304469124391674
1684123522167864000,10.227864013671875,-0.8268086971797048,0.0793289727807045,-1.0925810096785427
1684123522177835000,10.2378349609375,-0.5504290659487248,-0.08299158694148064,-0.8426192836433648
1684123522187806200,10.24780615234375,-0.33390352637358006,-0.40614042200148104,-0.2814411524042487
1684123522197776100,10.257776123046876,-0.04460508459769189,-0.8317799097210168,0.18790508283376692
1684123522207747000,10.2677470703125,0.029906404898688194,-1.1067366685420275,0.09513970537483692
1684123522217718000,10.277718017578126,0.1650537840783596,-1.050281790870428,-0.36751609231382604
1684123522227689000,10.28768896484375,0.17897256544604898,-0.5444283642292023,-0.9140425978660583
1684123522237660200,10.29766015625,0.31341376911774277,-0.005409165567159652,-1.3588187477320433
1684123522247630000,10.307630126953125,0.4806768998086452,0.2012742674946785,-1.634487161953747
1684123522257601000,10.31760107421875,0.6307238150216639,0.014817045381665228,-1.5169927091687916
1684123522267572200,10.327572265625,0.7964179428301751,-0.4396691821157932,-0.9592232173293829
1684123522277543200,10.337543212890624,1.0360581813372671,-0.8657616742998361,-0.25055647705793377
1684123522287513900,10.347513916015625,1.1983600363589824,-1.0703928510069847,0.36729192816913125
1684123522297484000,10.357484130859374,1.1114764104150234,-1.1426795040607451,0.783000388982892
1684123522307455000,10.367455078125,0.84626976897493,-0.9873112476944923,1.1059911108717322
1684123522317426000,10.377426025390625,0.5323008501924574,-0.6797071877688169,1.3027546229436993
1684123522327397000,10.387397216796876,0.46723742639049887,-0.4317249451130628,1.4089146117657423
1684123522337368000,10.3973681640625,0.8265745961628854,-0.2276420499384403,1.5403966733708976
1684123522347338000,10.407337890625,0.9981205187395215,-0.007975801184773444,1.701638790206611
1684123522357309200,10.41730908203125,0.8186112160682678,0.29626667335331436,1.7809765308156609
1684123522367280000,10.427280029296876,0.4257537617489695,0.7255477324455976,1.3698629965767264
1684123522377251000,10.4372509765625,0.3281422594331205,0.9447644838660955,0.9008373715952038
1684123522387222000,10.447221923828126,0.4965395087204873,0.7492781521230936,1.0059978279858828
1684123522397192000,10.45719189453125,0.6593640724420547,0.27400866431593895,1.1738444576531648
1684123522407163100,10.4671630859375,0.8415228667087853,-0.34777708036005495,1.3393693663746118
1684123522417134000,10.477134033203125,1.226641251208633,-0.7497726576417684,1.4432450436517594
1684123522427105300,10.487105224609374,1.8898782195612787,-0.8660913446456193,1.3898875474736094
1684123522437076000,10.497075927734375,2.4707833800554275,-0.8235311368137598,0.9742299400642513
1684123522447046100,10.507046142578124,2.6444565239191054,-0.7116647530436515,0.2970946486100554
1684123522457017000,10.51701708984375,2.264459574086219,-0.47720483978390693,-0.4411982913792133
1684123522466988000,10.526988037109374,1.407494661965221,-0.10978080966770648,-1.0775284019753337
1684123522476959000,10.536958984375,0.7111373681686818,0.3355325158149004,-1.4924258386671543
1684123522486930200,10.54693017578125,0.4653191716790199,0.6891349413275718,-1.5274851693496108
1684123522496900000,10.556900146484375,0.510198470108211,0.9244494255900383,-1.2415648257046936
1684123522506871000,10.56687109375,0.7036836911618709,1.0657032318860291,-0.6489195430561899
1684123522516842200,10.57684228515625,0.8821078289449215,1.3086083174079657,0.1904568131431937
1684123522526813000,10.58681298828125,0.8541177059963345,1.774428424346447,1.0622244498595594
1684123522536784100,10.5967841796875,0.8335413664355874,2.2193489511191844,1.872405983495712
1684123522546754000,10.606754150390625,0.6927861573114991,2.434024551978707,2.527154086574912
1684123522556725000,10.61672509765625,0.5677776756346226,2.305460131385922,2.9907731763377785
1684123522566696200,10.6266962890625,0.5174187767505646,1.9839210696101188,3.0166169349074363
1684123522576667100,10.636667236328124,0.38565219911560417,1.7088257791012524,2.6127885892406106
1684123522586638000,10.64663818359375,0.2234659332975745,1.668512473413348,1.9629457938596606
1684123522596608300,10.656608154296874,0.3520994736038148,1.977812815862894,1.3283245330080389
1684123522606579000,10.666578857421875,0.6402994526185095,2.4400778606683016,0.7703098342359066
1684123522616550000,10.6765498046875,0.9056590926632284,2.6962907560527323,0.423932683801651
1684123522626521000,10.68652099609375,1.030212816309929,2.522939099228382,0.30802842281758785
1684123522636492000,10.696491943359375,0.9711362118326127,2.218762675663829,0.44235038402378557
1684123522646462000,10.7064619140625,0.9640743106223643,2.109980229383707,0.7603799763739109
1684123522656433200,10.71643310546875,0.7377144094489514,1.9642612603724001,1.327300450657308
1684123522666404000,10.726404052734376,0.27041955378279087,1.5526514670491218,2.007154937942326
1684123522676375000,10.736375,-0.667804568529129,0.8665051861435175,2.5512726287871597
1684123522686346000,10.746345947265626,-1.8668585785016416,-0.08003390617966652,2.823389488007128
1684123522696316000,10.75631591796875,-2.4914780852988363,-1.2389005749315023,3.0101889476865527
1684123522706287000,10.766287109375,-3.0369422223165627,-2.4847984614044427,3.3091108117237686
1684123522716258000,10.776258056640625,-3.872614171040058,-3.6356712087929246,3.8147792371869085
1684123522726229200,10.786229248046874,-5.689717369508743,-4.999230429050326,4.150570403937995
1684123522736200200,10.7962001953125,-7.940610628926754,-6.322687356022,4.086937889721989
1684123522746170000,10.806170166015624,-9.360684348088503,-7.24506289794743,3.661178575015068
1684123522756141300,10.816141357421875,-9.124819244205952,-8.381887830761075,3.3244653249830005
1684123522766112000,10.826112060546874,-6.938987947285175,-9.876371771001816,2.9496248811304566
1684123522776083000,10.8360830078125,-3.910262933693826,-11.794373969024418,2.618096047998965
1684123522786054100,10.84605419921875,0.27000819650292396,-14.366610475385189,2.4446944145530463
1684123522796024000,10.856024169921875,5.289588755142688,-17.194419825661182,3.5746690430805086
1684123522805995000,10.8659951171875,8.20919960628152,-17.839091355884076,6.4573062543481585
1684123522815966200,10.87596630859375,11.097543212497234,-13.72704182125926,9.898059871196747
1684123522825937200,10.885937255859375,11.227275507825613,-5.8038774171739815,11.322502306962013
1684123522835908000,10.895908203125,5.437055444604158,0.11334697771668434,9.540838086143136
1684123522845878000,10.9058779296875,-2.243968136329949,2.380294715356827,5.480193744584918
1684123522855849000,10.915848876953126,-7.933573569896817,2.549652918630838,1.2106658295720816
1684123522865820200,10.925820068359375,-8.039701117753982,1.7688251975119114,-2.6077374433308838
1684123522875791000,10.935791015625,-2.4252587694600223,-0.5126835649222136,-7.914299545106291
1684123522885762000,10.945761962890625,3.1788857644423842,-3.011386048516631,-13.949837015688418
1684123522895732200,10.955732177734374,3.0906334804937243,-4.32064143165648,-19.023533779919145
1684123522905703200,10.965703125,-0.7239946577847004,-3.431602926665544,-24.121518597710132
1684123522915673900,10.975673828125,-1.7367215017646551,-1.3586235174208878,-29.36351324250698
1684123522925645000,10.98564501953125,-0.35245763939172026,1.4486200146883725,-27.136241681694983
1684123522935616000,10.995615966796874,2.549811324062943,5.189721436724066,-13.874382253992557
1684123522945586000,11.0055859375,5.080925546440482,4.337215549838542,-4.9935307561039926
1684123522955557000,11.01555712890625,5.282419594165683,2.196033541983366,1.9334739079207182
1684123522965528000,11.025528076171875,3.5554242443844672,0.5165864175796508,6.264260301494598
1684123522975499300,11.035499267578125,1.184454114472866,-0.19740707067251204,7.376000477412343
1684123522985469200,11.04546923828125,0.13503390886783598,-0.3061041767567396,6.078254914802312
1684123522995440000,11.055440185546875,-0.25163228959590195,-0.4373690884798765,2.528074708551168
1684123523005411000,11.0654111328125,-0.7534756038129329,0.08536416129171848,-1.1747323464035988
1684123523015381000,11.075381103515625,-1.606715357930958,1.4032669612675905,-3.2051866191297766
1684123523025352200,11.085352294921876,-2.0558263221308586,3.091383129817247,-4.149178365057707
1684123523035322000,11.095322021484375,-2.176715093529224,4.769683422273397,-4.4952129856646055
1684123523045293000,11.10529296875,-1.0439563872411846,6.091877781963348,-4.61025683042705
1684123523055264300,11.11526416015625,-0.3798962659373879,6.555061110657453,-4.41385338383913
1684123523065235200,11.125235107421876,0.5562213856145739,6.234168530091643,-3.4250755707234144
1684123523075206400,11.135206298828125,1.15272275916934,4.892380412137508,-1.8728642486572264
1684123523085176300,11.14517626953125,0.2596492995738983,3.0300048242688176,-0.31449732657074925
1684123523095147000,11.15514697265625,-0.18984803359508512,1.8845394888818263,0.9432534947812556
1684123523105118200,11.1651181640625,0.8150690134167671,1.5993518434256315,1.7753800259828567
1684123523115089200,11.175089111328125,2.098993848206103,1.7969155659645795,1.9400334125667809
1684123523125060000,11.18506005859375,3.3930554616063833,2.6385522683113813,1.26577981402874
1684123523135030300,11.1950302734375,4.838970016728341,3.8208740469306703,-0.37238136026263235
1684123523145001200,11.205001220703124,5.266386743253469,4.630115377107263,-2.9386271017760035
1684123523154972200,11.21497216796875,4.746177459001541,4.782466916000843,-6.004972236448526
1684123523164943000,11.224943115234375,3.9902503703832624,4.290623894533515,-9.223100170215965
1684123523174914000,11.2349140625,3.7264381059110163,3.386425814333558,-12.716191877067088
1684123523184884000,11.244884033203125,4.267248279643058,2.71779882350564,-15.81293741070032
1684123523194855200,11.254855224609376,5.12990438914299,3.040302346399426,-17.95491319928169
1684123523204826000,11.264826171875,5.131982948982715,4.341459763279557,-18.400342260098455
1684123523214797300,11.27479736328125,3.889624927073717,5.871694231337308,-17.443423812580107
1684123523224768300,11.284768310546875,2.2560148402154443,7.356484460559487,-15.108661014342307
1684123523234738200,11.29473828125,1.5508583000220357,8.857942915987968,-12.224494401550292
1684123523244709400,11.30470947265625,2.2909319859482347,9.987877504765986,-9.162279498550296
1684123523254680000,11.31468017578125,2.0055518866598603,10.244054744315147,-6.2528668008208275
1684123523264651000,11.324651123046875,0.5619055687308311,9.8252623460114,-3.9627579678237437
1684123523274622200,11.334622314453124,-2.624841138345003,8.826144340667128,-2.339970888274908
1684123523284592000,11.344592041015625,-6.295912161821127,8.675401406013965,-1.1916498711958528
1684123523294563000,11.35456298828125,-6.008734219330549,10.403056388747691,0.1580773691944778
1684123523304534300,11.3645341796875,-5.650343975019455,13.017213635993004,3.010584084483981
1684123523314505200,11.374505126953125,-2.9468086546659467,12.96281802893877,7.65040310948193
1684123523324475100,11.38447509765625,6.686576197749376,6.035584232333302,11.795941656732559
1684123523334446000,11.394446044921875,15.17488266826868,1.1600550017535687,15.268257702058552
1684123523344417000,11.4044169921875,15.774653565013407,4.102897090876102,19.04523590863943
1684123523354388200,11.41438818359375,0.8896773874163627,3.311660788467526,16.3728509288311
1684123523364359200,11.424359130859376,-13.987130681294202,-1.5738006380617617,8.164787633103131
1684123523374330000,11.434330078125,-14.974818361085653,-4.806206688028574,1.9295958974435925
1684123523384300300,11.44430029296875,-8.737025210756062,-7.652429646873474,-1.9280963065356016
1684123523394271200,11.454271240234375,-2.2900562260270116,-11.274991198724507,-4.5503930210947985
1684123523404242200,11.4642421875,2.89301627420187,-14.895547840493917,-7.383306416511536
1684123523414213000,11.474213134765625,0.4956161102652549,-15.886744989711046,-11.678179200661182
1684123523424183000,11.48418310546875,-1.5332915175408124,-14.671207170188426,-17.145095530521868
1684123523434154200,11.494154296875,3.2508839559435843,-10.873331137007474,-18.08369506201744
1684123523444125200,11.504125244140624,-0.8354898701548575,-5.31358805488944,-9.66735141942501
1684123523454096100,11.51409619140625,-3.5975574589759107,-1.8140215990662574,-2.492163144953549
1684123523464067300,11.5240673828125,-3.8798862078696486,0.026249709022045133,1.500054141588509
1684123523474037200,11.534037353515625,-4.24225412364006,-0.6417120958954096,4.452494956922531
1684123523484008200,11.54400830078125,-3.4285809484958647,-3.563589722922444,6.674603435882926
1684123523493979100,11.553979248046875,-3.479310434257984,-6.980192064332962,7.286530049845576
1684123523503950000,11.5639501953125,-4.121474365574121,-10.078624528139828,6.739710991087556
1684123523513921300,11.57392138671875,-4.541321241366863,-13.015069609701632,5.9558607072770595
1684123523523891200,11.58389111328125,-3.8455087219715116,-15.616266837608814,5.535474317780137
1684123523533862100,11.593862060546876,-1.5371943701982498,-17.954917875456808,5.728275940483808
1684123523543833300,11.603833251953125,0.5657588100928813,-19.11791769849062,6.444903284370898
1684123523553804000,11.613803955078126,1.7521534641742704,-18.762923526358602,7.660675497171282
1684123523563775000,11.62377490234375,1.8635738577425478,-17.13653345388174,9.09954977839291
1684123523573745200,11.6337451171875,1.499723156068474,-14.400816696369647,10.007074372667073
1684123523583716000,11.643716064453125,2.2350385415516794,-12.029004562675953,9.311571649873256
1684123523593687000,11.65368701171875,3.5365947484910487,-11.394520079946517,7.478079626661539
1684123523603658200,11.663658203125,3.2760663279950615,-11.890877363967896,5.237340681511164
1684123523613629200,11.673629150390624,1.276364190276712,-12.827760739195346,2.9420269733473656
1684123523623599000,11.68359912109375,-1.576066244906187,-14.156025943231581,0.3109013479053974
1684123523633570300,11.6935703125,-3.981854297959804,-15.47141997525692,-2.3441487584814427
1684123523643541000,11.703541015625,-5.368672228729724,-16.392687263679502,-4.454052707758546
1684123523653512200,11.71351220703125,-5.4610816323578355,-17.03895570770502,-5.646034295126795
1684123523663483100,11.723483154296876,-4.956007957917452,-17.797227898144723,-6.313077231633663
1684123523673453000,11.733453125,-3.709668172895908,-18.524181405735014,-6.826149503612518
1684123523683424300,11.74342431640625,-1.2548565612152218,-19.517293448662755,-7.000950774723291
1684123523693395200,11.753395263671875,1.073923217090219,-20.465558634126186,-6.401252358692884
1684123523703366400,11.763366455078126,2.016230955453962,-20.546505563497544,-4.480817672826349
1684123523713336300,11.77333642578125,2.167988035585731,-19.342862764430045,-1.4488254741325974
1684123523723307000,11.78330712890625,2.3004944718025624,-16.810564300704,1.9572946362301706
1684123523733278200,11.7932783203125,1.6515372270844875,-13.819374067997932,4.458313872334361
1684123523743249200,11.803249267578124,0.04333382255285978,-11.001217512208223,5.477417265608906
1684123523753220000,11.81322021484375,-1.6090449699223042,-8.471574531427025,5.553568192875385
1684123523763190300,11.823190185546874,-3.0587527798473833,-6.14041998681426,5.325827943259477
1684123523773161200,11.8331611328125,-4.629879814785719,-4.145932515004277,5.277117396104336
1684123523783132200,11.843132080078124,-6.061369246453046,-2.508125560978055,5.323326189571619
1684123523793103000,11.85310302734375,-6.567289308589697,-1.2412386624902485,5.242876103806496
1684123523803074000,11.863073974609375,-5.534612147992849,-0.0719435387045145,5.530607004004716
1684123523813044000,11.8730439453125,-2.856508206015825,0.8596417301148176,6.281507204371691
1684123523823015200,11.88301513671875,0.04778568739518523,2.660015912100673,7.810125469404459
1684123523832986000,11.892986083984376,-0.08031564573049545,3.2485540516912934,9.547456627500056
1684123523842957300,11.902957275390625,-2.4013562080860136,2.4455577533841133,10.840654025286435
1684123523852928300,11.91292822265625,-3.9902199752449987,1.0350158326774834,11.77374385344982
1684123523862898200,11.922898193359375,-3.3673218854129314,0.08364975858926772,12.50747781496048
1684123523872869400,11.932869384765626,-0.7831671238519251,1.8104238668352364,13.081588200747966
1684123523882840000,11.942840087890625,3.7041608076512813,6.560824496489763,12.133185068118571
1684123523892811000,11.95281103515625,3.094587478816509,8.825222549647092,10.399133077824116
1684123523902782200,11.9627822265625,-2.659510300666094,14.376857144111394,8.469102003833651
1684123523912752000,11.972752197265624,8.267145599293709,36.19530455139875,5.238008790031075
1684123523922723000,11.98272314453125,0.4928991063915193,44.77496594805717,-1.335068454310298
1684123523932694300,11.9926943359375,24.14451836502552,52.86826538500785,-10.929669694823026
1684123523942665200,12.002665283203125,-17.60021011905074,37.42367262639999,-16.504564753365514
1684123523952635100,12.01263525390625,-22.637620933413505,16.336809309113026,-17.72199291667938
1684123523962606000,12.022606201171875,-1.1911387068033217,3.3720658650696276,-5.389646043175459
1684123523972577000,12.032576904296874,3.690988022345304,-2.363460484933853,2.3708973569363354
1684123523982548200,12.04254833984375,4.855751932442188,-6.158232706880569,6.785649735441804
1684123523992519200,12.052519287109375,0.020352906068414448,-8.780994700863957,8.506667472118139
1684123524002489000,12.062489013671875,-0.6927838192239403,-11.081066709470749,7.8379422816127535
1684123524012460500,12.07246044921875,7.366236039245128,-13.131307632684706,3.352192705342173
1684123524022431500,12.082431396484376,15.386944871759415,-5.479596363213658,-8.239193178007007
1684123524032402400,12.09240234375,1.9304349786162376,12.63838266119957,-21.455841591107845
1684123524042373400,12.102373291015626,-11.744548154103756,20.1708263307333,-31.796555213189123
1684123524052343300,12.11234326171875,-2.4632138215839863,8.622664672082662,-44.689303096079826
1684123524062314500,12.122314453125,4.052930406180024,-1.4468144265711307,-36.165734758043286
1684123524072285400,12.132285400390625,4.7221468873336905,-4.610661319574714,-11.250057832998037
1684123524082256400,12.14225634765625,1.2718366298496722,-7.857351330959797,-0.9984534039556979
1684123524092227600,12.1522275390625,-1.5444713754639028,-8.740233066886663,4.425559019201994
1684123524102197500,12.162197509765624,-3.8053777871131893,-7.641159480318427,8.24657159782052
1684123524112168200,12.172168212890625,-6.26145927259922,-6.846946792447566,9.94391093726754
1684123524122139400,12.182139404296874,-4.863979662561416,-8.100384426775575,7.607536027657985
1684123524132110300,12.1921103515625,3.9520775838553903,-4.349724318277835,-0.6793950530797243
1684123524142080300,12.202080322265624,5.5166030285716054,0.6587900719463825,-8.12290430161953
1684123524152051500,12.212051513671875,2.1268235198959706,0.8660673792481421,-13.39587159230709
1684123524162022400,12.2220224609375,0.7442654385276138,-0.46918519945740694,-17.922497953367234
1684123524171993600,12.23199365234375,1.3639540647938846,-2.2203116586714984,-17.48777265739441
1684123524181964300,12.24196435546875,0.8948290710911154,-3.1411019772320983,-10.226709641760587
1684123524191934500,12.2519345703125,-0.7019232573606073,-4.3192344874680035,-3.622462767651677
1684123524201905400,12.261905517578125,-1.3972656750261783,-4.94737632317245,0.1790910772591829
1684123524211876400,12.27187646484375,-1.3238837740816176,-4.530220001637935,2.888963199418783
1684123524221847300,12.281847412109375,-0.6814366419099271,-2.9155852488845584,3.874059109151363
1684123524231818500,12.291818603515624,0.2785996453680098,-0.6282464651226997,1.798262888920307
1684123524241788400,12.301788330078125,0.7781634703457355,1.3195897301495074,-1.5532266365885734
1684123524251759600,12.311759521484374,0.5495182347141206,2.564866269853711,-4.079841209459304
1684123524261730600,12.32173046875,0.4734216679833829,3.0501550473719834,-5.449661828199028
1684123524271701200,12.331701171875,0.37988442936912176,2.6159926459789276,-5.6994771315008395
1684123524281672400,12.34167236328125,0.4768820375703275,1.6034972726672887,-4.794278349825739
1684123524291642400,12.351642333984374,0.28636764902099965,0.6010942543029785,-2.9955151101678608
1684123524301613300,12.36161328125,-0.11863017881661653,-0.14123627063930033,-1.161016540262103
1684123524311584500,12.37158447265625,-0.6831599585711956,-0.5231698876231908,0.329984818559885
1684123524321555500,12.381555419921876,-1.1011151753984392,-0.6309504633843899,1.546889834782481
1684123524331525400,12.391525390625,-1.3422246096752584,-0.705369452291727,2.4769617764294147
1684123524341496600,12.40149658203125,-1.1917862109266222,-0.7887626057714223,2.998066255955398
1684123524351467300,12.41146728515625,-0.5247488273777068,-0.8379518763542175,3.0513708529025316
1684123524361438500,12.4214384765625,0.36723055337071414,-0.8787830684363841,2.578111243613064
1684123524371409400,12.431409423828125,0.7320482003808021,-1.0026473485141991,1.7289380082815884
1684123524381379300,12.44137939453125,0.31473332728371023,-1.2550924157977104,0.8279965917900204
1684123524391350500,12.4513505859375,-0.7173509819865226,-1.5155524472326038,0.2255532609656453
1684123524401321500,12.461321533203124,-1.64832951708436,-1.7340455605536698,0.04305734369903803
1684123524411292400,12.47129248046875,-1.918013011677563,-1.8144541452646255,0.2195496366366744
1684123524421263400,12.481263427734374,-1.8170168353594838,-1.789019844278693,0.5367842792168259
1684123524431233300,12.4912333984375,-1.4248784890949726,-1.7988257835000752,1.033793305145204
1684123524441204200,12.501204345703124,-0.8630759423471986,-1.9056512504935263,1.6030428068980573
1684123524451175400,12.511175537109375,-0.43829445969648656,-2.093476253828406,2.078803000831604
1684123524461146400,12.521146484375,-0.7027823584079742,-2.3532559017837045,2.2639579081743952
1684123524471117600,12.53111767578125,-1.2440332616448402,-2.5817092681050298,2.189753731061518
1684123524481087500,12.54108740234375,-1.318620592856407,-2.598304429075122,1.8489535039767622
1684123524491058400,12.551058349609375,-1.0630828933198004,-2.452954877898097,1.4379685645535587
1684123524501029400,12.561029296875,-1.0400034848969428,-2.3970728316783902,1.0329343502283095
1684123524511000300,12.571000244140626,-0.7922328391652553,-2.4501614477872846,0.5733613209858537
1684123524520971300,12.58097119140625,-0.3860813112478703,-2.4566408729344604,0.0876974265448749
1684123524530941400,12.59094140625,-0.2522271136838943,-2.3246131601452826,-0.48265097636058923
1684123524540912400,12.600912353515625,-0.43963294175863266,-2.264724800893664,-0.9905914384089409
1684123524550883300,12.61088330078125,-0.4532581104746088,-2.177370342567563,-1.2829792245022953
1684123524560854500,12.6208544921875,-0.4972761524319648,-2.0733903281331063,-1.328820499831438
1684123524570824400,12.630824462890626,-0.6919546749234199,-1.899202805006504,-1.0326737995959818
1684123524580795600,12.640795654296875,-0.6498024633705616,-1.666341559115052,-0.49528936252892014
1684123524590766300,12.650766357421874,-0.4211866364965215,-1.3795534927248954,0.22385025644004344
1684123524600737300,12.6607373046875,-0.1109609593629837,-0.9498726206600665,1.052697765970975
1684123524610708500,12.67070849609375,0.20863807426095007,-0.3773609022408724,2.0877479393094776
