time,seconds_elapsed,z,y,x
1684131134017042400,0.05204248046875,0.07578852369487285,-0.03631809857189655,0.011503390789031983
1684131134027015400,0.062015380859375,-0.451764109057188,-0.06064034666270017,0.07015782433152198
1684131134036987600,0.071987548828125,-0.6269482420057058,-0.019320348150283096,0.11807575980424881
1684131134046960400,0.08196044921875,-0.3864741830229759,-0.07205445173308253,-0.04478489814400673
1684131134056932400,0.091932373046875,-0.44167643028497694,-0.11776713224649428,-0.20355039573311803
1684131134066904600,0.101904541015625,-0.3673305066138506,-0.08616057236641644,-0.2087590702921152
1684131134076877300,0.111877197265625,-0.35266543692350383,0.09926716056838632,-0.2727805838257074
1684131134086849500,0.121849609375,-0.5822820018053054,0.3113144587509334,-0.28546353978812694
1684131134096821200,0.1318212890625,0.10239771367907524,0.22736557108461855,0.056227498656511304
1684131134106794200,0.141794189453125,1.281810911375284,0.11896131046712398,0.06293664090633391
1684131134116766500,0.151766357421875,0.8492202893435955,0.023850392795354128,-0.021322189491987227
1684131134126739500,0.161739501953125,-0.7104828497827053,0.023745324985682964,-0.03660392977595329
1684131134136711400,0.17171142578125,-1.3596551985561847,0.14483634095788,0.042238136270642275
1684131134146683400,0.181683349609375,-0.7418892109155655,0.23902415243536232,0.4668652320772409
1684131134156656400,0.191656494140625,0.1625830100506544,0.26739289943799377,0.6044985097885132
1684131134166628400,0.20162841796875,0.16174012948572636,0.19228008304759858,0.407871191316843
1684131134176601300,0.211601318359375,-0.5066957226842641,0.36923955510556694,0.1413163501381874
1684131134186573600,0.221573486328125,-0.48516748922616243,0.5279268728919327,-0.07857669310867786
1684131134196545300,0.231545166015625,-0.6164069742470979,0.26087314228042957,-0.18107962072789668
1684131134206518500,0.2415185546875,-0.5952747543692588,0.09603227030038833,0.027012510088086125
1684131134216490500,0.251490478515625,-0.7433721429497003,0.21132176038697362,-0.26185236257612704
1684131134226462500,0.26146240234375,-0.8045110867843032,0.09491495670825242,-0.3505202415883541
1684131134236435500,0.271435546875,-0.5063122763246297,-0.09165259391143918,-0.07279927875101566
1684131134246407400,0.281407470703125,-0.30044191321134567,-0.2761658423498273,-0.14487258131504058
1684131134256380400,0.29138037109375,-0.16524521499723194,0.014603548761457204,-0.03963058412075043
1684131134266352400,0.301352294921875,-0.34471886183321476,0.3134808430045843,0.22358897515535353
1684131134276324600,0.31132470703125,-0.5550912125408649,0.8924471443906425,1.0144131896317004
1684131134286297300,0.32129736328125,-0.811581463561952,0.6771532655023038,1.3706149839878081
1684131134296269300,0.331269287109375,-0.9844301393002272,0.05435322921723127,0.9751806649178266
1684131134306241500,0.341241455078125,-0.8132736544325947,-0.47249563917964693,0.3342857306241989
1684131134316214300,0.35121435546875,-0.6168459501862525,-0.3357609177432954,0.08408581191897392
1684131134326187300,0.361187255859375,-0.24185645325183866,-0.06814589998722076,0.4526718715518713
1684131134336160500,0.371160400390625,-0.19848770551607012,0.03887771992683411,0.8666969093233347
1684131134346132200,0.38113232421875,-0.8183947968386113,0.17606646874099968,1.1381021131426095
1684131134356105200,0.391105224609375,-0.5429781654208898,-0.04605594099313021,2.4653783061414956
1684131134366077400,0.401077392578125,-0.7603431514948606,-1.4594094119891523,-0.8091326091051101
1684131134376050200,0.41105029296875,-1.6737620645046234,-0.6714908558264374,-0.6287590908199548
1684131134386022400,0.4210224609375,-0.940660555678606,0.11714636999964713,0.5137842196404934
1684131134395994400,0.430994384765625,-0.4246943523565307,0.20101620108038185,1.4969687427937983
1684131134405967400,0.44096728515625,0.1305547176271677,-0.5943669918745755,1.2330787369102238
1684131134415939300,0.450939208984375,0.09121230279803276,-0.9280299144253135,0.6483809061348438
1684131134425911600,0.46091162109375,0.22381228078352286,-1.030091528017819,-0.20149697033464908
1684131134435884300,0.47088427734375,0.41737317915558814,-0.9453232867926359,-0.6529115353018045
1684131134445856300,0.480856201171875,0.6514531531870364,-0.43569764813631773,-0.5870084458053112
1684131134455828500,0.490828369140625,0.8289209400933235,0.1269604925274849,-0.39343525420725345
1684131134465801200,0.50080126953125,0.6681610538166016,0.81389792381078,0.41437341281771656
1684131134475773400,0.5107734375,-0.06037417000718415,1.2017366731852293,0.944632966440916
1684131134485746400,0.520746337890625,-0.4003191685020923,0.9276704334631561,0.9997487044632434
1684131134495718100,0.53071826171875,-0.5117851547777652,0.38077480233758687,0.44448330439925193
1684131134505690400,0.5406904296875,-0.06554930762276052,-0.10016074840724468,-0.3480915531367063
1684131134515663400,0.550663330078125,0.8596690565131604,-0.43790947896689175,-0.81819679004848
1684131134525635300,0.56063525390625,1.6350119164802133,-0.3939174847662449,-1.0546265420764684
1684131134535607300,0.570607177734375,1.9401975170873105,-0.039080256761610505,-0.9712678753882646
1684131134545580300,0.580580322265625,1.723952767214924,0.5468655282482504,-0.5516285048663616
1684131134555552300,0.59055224609375,0.8277659979045391,0.8778568935021758,0.008117840003967284
1684131134565525200,0.600525146484375,0.1512893164895475,1.0700883151024578,0.30809681187868115
1684131134575497500,0.61049755859375,0.5059187469623982,-0.25953736363202334,0.26720132238864897
1684131134585469200,0.62046923828125,0.7317023095525801,-0.8400611235931515,0.4210591741919517
1684131134595442200,0.630442138671875,0.8991394816361368,-1.2309779652386903,0.5506137748658657
1684131134605414400,0.640414306640625,1.7877321425557136,-1.8713532595723867,1.7636551013976334
1684131134615386400,0.650386474609375,1.501844824397564,-1.6292904700934887,1.9889216543763875
1684131134625359400,0.660359375,-0.0008100012086331844,-1.0395078833997249,0.42977673365473745
1684131134635331300,0.670331298828125,-0.2308824931643903,-0.505381132954359,0.630976182347536
1684131134645304300,0.68030419921875,-0.9185761496424675,-0.07052022790312766,-0.3584609714597463
1684131134655276300,0.6902763671875,-0.4828770402014255,-0.7858160309255122,-0.8907657671749591
1684131134665248500,0.70024853515625,-0.23558336433172225,-0.14319558801352977,0.034060090512037275
1684131134675221500,0.710221435546875,-0.7157515839658677,0.09419891739338636,0.7952741796225309
1684131134685193200,0.720193115234375,-0.13255918931737543,-0.44306379299014803,1.3077204286575317
1684131134695165400,0.73016552734375,0.599461392404139,-0.9360387410968541,2.2077444380432367
1684131134705138400,0.740138427734375,0.27092589586973187,-2.691165083602071,3.4578596499502656
1684131134715110400,0.7501103515625,0.5317129673019051,-4.750437454533577,2.5495412749499082
1684131134725082400,0.760082275390625,-0.13508490840271115,-3.0394477753967046,-0.7806757454276084
1684131134735055400,0.770055419921875,2.4385320925310254,-2.4811191883698105,-1.170074875986576
1684131134745027300,0.78002734375,2.056464035512507,-1.2488836242854595,0.8526970255434513
1684131134755000300,0.790000244140625,1.3398691325902938,-0.052251873023808,1.1854723516047
1684131134764972500,0.79997265625,0.18203940567076204,0.4490928440213203,0.3708586807399988
1684131134774944300,0.8099443359375,-1.3519289882183074,1.8335928532376884,0.37747722209692
1684131134784917200,0.819917236328125,-3.350060077227652,2.2661866901397705,-1.0189876579403876
1684131134794889500,0.829889404296875,-3.958482774722576,2.167963631796837,-1.2480348985016345
1684131134804861200,0.839861083984375,-3.609205811193585,0.561801231573522,-0.8836071275919676
1684131134814834400,0.84983447265625,-3.465390337716043,-0.671290364818275,-2.824928826403618
1684131134824806400,0.859806396484375,-3.764945823481679,-0.24967180317789314,-3.6292478977471587
1684131134834778400,0.8697783203125,-3.1560084544628855,0.30482670416682955,-2.527241180336475
1684131134844751400,0.87975146484375,-2.400421557584405,0.9237588129773735,-0.46625031504929065
1684131134854723300,0.889723388671875,-2.005409263318777,2.174813059300184,1.2930927683681248
1684131134864696300,0.8996962890625,-2.3771949957758185,3.7634295736998316,1.7428683339565991
1684131134874668300,0.909668212890625,-1.9786334845960138,5.0915655983984465,1.5507295590758323
1684131134884640500,0.919640625,0.2911281414210796,6.259068578070401,0.8320107958674431
1684131134894613200,0.92961328125,3.0361580862015485,5.241448701351881,-1.1661515650629997
1684131134904585500,0.93958544921875,3.875528597182035,3.374804934644699,-2.2229431762188674
1684131134914557400,0.949557373046875,6.102937520638108,2.8459304056391117,-2.2984224878340958
1684131134924530200,0.9595302734375,6.835998112931847,1.62252725956887,-2.4470728341221806
1684131134934502400,0.96950244140625,5.16733541739285,-0.0931932474821806,-2.848725881576538
1684131134944474400,0.979474365234375,3.1057284660339355,-2.167331617503613,-2.61621184168756
1684131134954447400,0.989447265625,1.3922387867748736,-3.3720746328979727,-1.3955705615460872
1684131134964419300,0.99941943359375,-1.8317764514654873,-3.4588968840435146,0.0017559037566184997
1684131134974392300,1.009392333984375,-8.907752364295721,-2.2129588116906582,1.6571727487534285
1684131134984364300,1.0193642578125,-2.231123560065031,-1.630449577000737,0.771594028827548
1684131134994336300,1.029336181640625,1.4698030879706143,-1.005803474457562,0.15651684187948703
1684131135004309500,1.0393095703125,0.9564560907036066,-0.1930842390373349,0.5905138235777616
1684131135014281200,1.04928125,0.753566789227724,-0.05175941333174705,-0.03814297591149807
1684131135024253400,1.05925341796875,0.9508347436904907,-0.020260990001261234,-1.245486383062601
1684131135034226400,1.069226318359375,0.48711891555488107,0.2288970184355974,-1.349710143125057
1684131135044198400,1.079198486328125,0.6375286727309226,0.5601689541965723,-0.5523971511512994
1684131135054170400,1.08917041015625,1.3364280522257088,0.5483323859304189,0.8269161030769347
1684131135064143400,1.099143310546875,1.5035907912820576,0.5293588053911924,1.8902058440804481
1684131135074115300,1.109115234375,1.5155121152222155,0.6202087046176195,2.2942840728551146
1684131135084087300,1.11908740234375,0.96864687923491,0.8404223581209779,2.6706787604123354
1684131135094060500,1.129060546875,0.17443243779838083,0.5248834135428071,2.667641000151634
1684131135104032300,1.1390322265625,-0.3506728018015623,-0.3383861516803503,1.8136036659151316
1684131135114004500,1.14900439453125,-1.764756340637803,-2.037479933579266,1.0438128871172665
1684131135123977500,1.1589775390625,-4.473194630602002,-4.581150562930107,0.29042554610967636
1684131135133949200,1.16894921875,-2.6894682165563104,-5.492222036030888,1.3792179771602153
1684131135143922400,1.17892236328125,0.14234978483915328,-6.363358389106392,2.2005589104533194
1684131135153894400,1.188894287109375,0.5148240840822458,-7.603435022079944,2.5641461388856173
1684131135163866400,1.198866455078125,0.0895411547154188,-7.5587056535154575,2.9291180996745823
1684131135173839400,1.20883935546875,2.182163422062993,-5.866100356853008,1.0910112761437891
1684131135183811300,1.218811279296875,2.748744581389427,-2.711703136979043,-2.1575994741708038
1684131135193783300,1.228783203125,2.4010417353093625,-0.9588242811396718,-3.8348540569663045
1684131135203756300,1.23875634765625,2.3017881648749112,0.2758285732194781,-4.0802965520113705
1684131135213728500,1.248728515625,0.6137696114808321,1.0894491413936018,-2.428729952701926
1684131135223700200,1.2587001953125,-2.3227649019300936,3.8683565135955806,0.3661643854439258
1684131135233673200,1.268673095703125,-0.5470440996855497,6.524321104478836,0.5210100792407989
1684131135243645400,1.2786455078125,0.6263555368095636,4.18898050635308,-0.1922416507333517
1684131135253618200,1.2886181640625,0.4619949956923723,2.2118854833707213,-0.5553261903405189
1684131135263590400,1.29859033203125,0.45507308747470376,0.4003708986893296,-0.21659458622336386
1684131135273562400,1.308562255859375,0.6678454850614071,-1.9508190104752778,0.1882896982371807
1684131135283535400,1.318535400390625,1.2675450701355933,-2.8065868217661976,-0.15870353826880454
1684131135293507300,1.32850732421875,-0.07816285161077975,-0.4994736624762416,-0.17574352039694785
1684131135303479600,1.3384794921875,-0.5609703337073326,0.25345833597928286,0.02327741521298885
1684131135313452300,1.348452392578125,-0.9481488656073808,-0.10771072539538144,1.2138918058812618
1684131135323424300,1.35842431640625,-2.799545378822088,2.020539612433314,2.6155203522920605
1684131135333399800,1.36839990234375,-2.6991940762788054,6.1777054691135875,2.2531220413833855
1684131135343372500,1.37837255859375,-3.477506599706411,4.305456722006202,0.8225713518708944
1684131135353344800,1.3883447265625,-0.7422937000632286,3.450349128189683,0.7020657345712185
1684131135363316700,1.398316650390625,0.8345096269458532,2.595200617840886,1.3307435768485067
1684131135373289500,1.40828955078125,2.06911221242249,1.0907795132145286,0.012798691296577453
1684131135383261700,1.41826171875,1.8312632412463425,1.1662661313533782,-1.2963988241761921
1684131135393233700,1.428233642578125,1.8299147492468355,3.1989880567505953,-1.644883176022768
1684131135403206700,1.43820654296875,1.2639572747766972,3.296142609079182,-1.7576684282034634
1684131135413178600,1.4481787109375,0.975215151709318,3.1875138920560477,-1.4070587547659874
1684131135423150800,1.45815087890625,0.4884621468573808,3.254582225939631,-0.9836971488505601
1684131135433123600,1.46812353515625,0.25591829635202884,2.122155528084934,-0.8711036198496818
1684131135443095800,1.478095703125,0.7351362295240164,1.4531525435514747,-0.7201333061814308
1684131135453068800,1.48806884765625,0.804531837311387,1.1658560892477632,-0.5843862806081771
1684131135463040500,1.49804052734375,0.6625754357039928,1.000100002118945,-0.1994043819695711
1684131135473012700,1.5080126953125,0.5585697023063898,0.7630275682732462,0.08506488608419895
1684131135482985700,1.51798583984375,0.6166635793566704,0.576042522893846,0.40398996596932407
1684131135492957700,1.527957763671875,0.6598831278800964,0.35034196241199966,0.6367126801729202
1684131135502929700,1.5379296875,0.5886696570158004,0.009700433020293713,1.1096586934685706
1684131135512902700,1.547902587890625,0.4505360285669565,-0.5779429496876896,1.7527479229360818
1684131135522874600,1.55787451171875,0.8349497719287872,-0.7028922485232353,1.5616951897263527
1684131135532846600,1.5678466796875,0.5047819980174303,-0.7248734864458442,1.541660701957345
1684131135542819800,1.57781982421875,-0.7707979100137948,-0.7240345514036715,0.748859634450078
1684131135552791600,1.58779150390625,-0.8387228607267141,-0.05827361753135919,1.2892945451289415
1684131135562763800,1.597763671875,-0.39094343739151954,0.646507075086981,1.6790151627272367
1684131135572736800,1.60773681640625,0.43995559784173965,0.4154942335411906,0.1531160935252905
1684131135582708500,1.61770849609375,0.9374895244270562,0.2716245456583798,-1.0879857908427715
1684131135592680700,1.6276806640625,1.0979805306345223,-0.8909519373968243,-2.2392349703282117
1684131135602653700,1.63765380859375,-0.14030337370336055,-2.03983175740242,-1.8358049763292072
1684131135612625700,1.647625732421875,-1.4949538958400488,-2.470362524294853,-0.9041051412194967
1684131135622597600,1.65759765625,-1.3295979139447212,-2.633936298948526,-0.6522083554685115
1684131135632570600,1.667570556640625,-0.9437240349024534,-2.260819756279141,-0.33198797507584094
1684131135642542600,1.67754248046875,0.03442249408364296,-1.0233519906297326,0.5134539647728205
1684131135652514800,1.687514892578125,0.49184243694543833,-0.15385288336724043,0.8070195624738932
1684131135662487800,1.69748779296875,0.47974575643837447,0.11245134405121207,0.5103735344141721
1684131135672459500,1.70745947265625,0.2490408117979765,0.2695040463730693,0.198354580655694
1684131135682431700,1.717431640625,0.05474924279749393,0.2749379079900682,-0.1535685134679079
1684131135692404700,1.72740478515625,0.020460019704699513,0.2395155892141163,-0.1561398252606392
1684131135702376700,1.737376708984375,-0.13002046461999417,0.2892025801859796,-0.1125906063914299
1684131135712349700,1.747349609375,0.024787819775938986,0.2799504754550755,-0.14374913024306296
1684131135722321700,1.75732177734375,0.18095920921862124,0.15975246279984712,-0.09762509244978428
1684131135732293600,1.767293701171875,0.019457564663887022,-0.05870923246964812,-0.018646248281002045
1684131135742266600,1.7772666015625,0.2598462834507227,-0.18046426530852913,-0.07886486240029335
1684131135752238800,1.78723876953125,0.07351824067533015,-0.11874196862801908,-0.16038462322354316
1684131135762210600,1.79721044921875,-0.2818757444292307,-0.015704349610209466,-0.22555647583603858
1684131135772183600,1.80718359375,-0.2316208904415369,0.12763722274526954,-0.3020557781487703
1684131135782155800,1.81715576171875,-0.06021744507551193,0.30228096520677206,-0.24333120197951794
1684131135792127500,1.82712744140625,-0.006854103678464889,0.40463308617845173,-0.08279927923977375
1684131135802100700,1.837100830078125,-0.041378889092802996,0.40637832241058347,0.06623217532038689
1684131135812072700,1.84707275390625,-0.11268705250322818,0.302990720911324,0.12945932360589504
1684131135822044700,1.857044677734375,-0.13464052563607692,0.09876622530892491,0.19615560930669307
1684131135832017700,1.867017578125,0.06480535738766192,-0.34027810290679333,0.10724281562268734
1684131135841989600,1.87698974609375,0.37005730122923847,-0.7618591090157628,0.17537644065022467
1684131135851961600,1.886961669921875,0.5145575421005487,-1.3208781625248491,0.3920972836017608
1684131135861934600,1.8969345703125,0.5865250462025403,-1.6799623804494737,0.6485638614863157
1684131135871906800,1.90690673828125,0.7191875497639179,-1.619649366044998,0.22355741097331044
1684131135881878500,1.91687841796875,0.5272194552749395,-0.8442633975885808,-0.6353367156445979
1684131135891851800,1.926851806640625,-0.17779694579541683,0.7134796935111284,-0.543845011383295
1684131135901823700,1.93682373046875,-0.20847265456616879,1.3184845453865826,0.1630617334783077
1684131135911795700,1.946795654296875,-0.851291250398755,1.0336137107945977,0.2989244943857193
1684131135921768700,1.956768798828125,-0.6577607288986445,0.3444467668935656,0.3987321915715933
1684131135931740700,1.96674072265625,0.538123126605153,-0.6311622064389288,0.3985053970783949
1684131135941712600,1.976712646484375,1.0965946292340756,-1.351699417246133,-0.2601069802135229
1684131135951685600,1.986685546875,0.6228080734610557,-1.2973371279396115,-0.37334932851195335
1684131135961657900,1.996657958984375,0.1253705929875374,-1.1034417186498642,0.21221651726961135
1684131135971629600,2.006629638671875,0.6609522184163331,-0.9280625015206635,0.8220470357358455
1684131135981602600,2.0166025390625,0.7548626742571591,-0.780754948143661,-0.14408172319829463
1684131135991574800,2.02657470703125,0.8986451222479342,0.1525078984990716,0.2414373510569334
1684131136001546500,2.03654638671875,0.7675608277887106,0.41106925670579075,0.15927227806746957
1684131136011519700,2.046519775390625,-0.0936976898729801,0.8430329790107906,-0.03126256874799728
1684131136021491700,2.05649169921875,-0.47273032471835613,1.1742875252455471,0.3353571592479944
1684131136031463700,2.066463623046875,-0.315340791657567,0.9650666826605796,0.3071405340671539
1684131136041436700,2.076436767578125,-0.13296119424700736,0.8009177384674548,0.09367547804117202
1684131136051408600,2.08640869140625,0.203979434800148,0.46482525068223474,0.002546177351474762
1684131136061380600,2.096380615234375,0.16089900248646735,-0.05740063408911228,-0.07381868492662906
1684131136071353600,2.106353515625,-0.11831424473524092,-0.5608591284178197,-0.1175093580931425
1684131136081325800,2.116325927734375,-0.21701602650582788,-0.7650475297935306,-0.040084173107147215
1684131136091298600,2.126298583984375,-0.42756490282416343,-0.653080169866979,-0.03020166151821613
1684131136101270800,2.136270751953125,-0.4484983852595091,-0.3043678544834256,-0.08104220643937587
1684131136111242800,2.14624267578125,-0.12321020008325576,0.1586567765176296,0.02842880662679672
1684131136121214700,2.156214599609375,0.1341278999388218,0.48895314524471756,0.013265139764547348
1684131136131187700,2.166187744140625,0.22881518537104129,0.604755261028558,-0.03230126414597034
1684131136141159700,2.17615966796875,0.21000877809226512,0.5187044326469302,-0.02255553067922592
1684131136151132700,2.186132568359375,0.11983517069220542,0.31195436408966776,-0.12677110743522643
1684131136161104600,2.196104736328125,0.08369125964343548,0.17496873663216828,-0.07780103256106376
1684131136171076900,2.206076904296875,0.10607026471197605,0.033067718473821874,-0.04698854566812515
1684131136181049600,2.216049560546875,0.15327742156684399,-0.02956760139837861,0.13712240557968616
1684131136191021600,2.226021484375,0.14138006302416323,-0.08549304836839437,0.23199790706038473
1684131136200993800,2.235993896484375,0.033245266997814174,-0.09767360776662826,0.25545184788405895
1684131136210966500,2.245966552734375,0.047668929147720335,-0.08971183510720729,0.267152807071805
1684131136220938800,2.255938720703125,0.07996668616235256,-0.0996931308954954,0.20731880835592745
1684131136230910700,2.26591064453125,0.19031448206305504,-0.09209317728579043,0.1950298201471567
1684131136240883700,2.2758837890625,0.29115269134044647,-0.08708002529889344,0.11564356422126293
1684131136250855700,2.285855712890625,0.4082862018585205,-0.01779562280103564,0.2562970665365457
1684131136260828000,2.295827880859375,0.3835556652277708,-0.031816987760365005,0.30034897423088547
1684131136270800600,2.305800537109375,0.20599895792901515,-0.05284136334955692,0.2950947069644928
1684131136280772600,2.315772705078125,0.022080314382910728,-0.005649404063820839,0.3032902883797884
1684131136290744800,2.325744873046875,-0.10660627128481864,0.06144990947991609,0.3003840455442667
1684131136300717600,2.335717529296875,-0.1082639753639698,0.10070113889425993,0.2429185295253992
1684131136310689800,2.345689697265625,-0.047341596889495845,0.1222740882769227,0.08264145832955837
1684131136320661800,2.355661865234375,-0.045589784786105154,0.21926059056222438,0.2006114196717739
1684131136330634500,2.365634521484375,0.12604279316067696,0.22546485202983022,0.26101123557686806
1684131136340602400,2.375602294921875,0.24787001445293425,0.14178557508513331,0.25379589737057684
1684131136350574300,2.38557421875,0.24556115298867223,0.026020138049870727,0.21851824776232243
1684131136360547300,2.39554736328125,0.062606386038661,-0.01423047766536474,0.10388765997588634
1684131136370519300,2.405519287109375,-0.13940437903702257,0.058986734236776826,0.08474515261054039
1684131136380491300,2.4154912109375,-0.13100479948222638,0.04049669943079352,0.0784703101247549
1684131136390464300,2.42546435546875,-0.14391396541595458,-0.03104746469259262,0.053332946258783334
1684131136400436500,2.4354365234375,-0.22792729662060737,-0.05124707989543676,0.006222820037603378
1684131136410408200,2.445408203125,-0.2580599845558405,-0.029601649798452853,-0.09404431135356425
1684131136420381200,2.455381103515625,-0.24619126758575438,-0.007301555185019969,-0.06777063693404198
1684131136430353400,2.465353515625,-0.1324590899437666,-0.04127338289171457,-0.11351239741146564
1684131136440325400,2.475325439453125,-0.08994155220985411,-0.09514993450790643,-0.2032861918389797
1684131136450298400,2.48529833984375,-0.1495031637251377,-0.09498977551013231,-0.3242570885628462
1684131136460270300,2.495270263671875,-0.23277649021744726,-0.07265636314898728,-0.47515024534165856
1684131136470242300,2.5052421875,-0.2514104635387659,-0.02740881592929363,-0.4215525106668472
1684131136480215300,2.51521533203125,-0.14290975680947304,-0.0550838815793395,-0.40516719305515286
1684131136490187500,2.5251875,-0.08418342707455158,-0.07111337149068712,-0.40415012496709823
1684131136500159200,2.5351591796875,-0.1355173084706068,-0.10192483547031879,-0.32743513407707214
1684131136510132200,2.54513232421875,-0.18822189369797707,-0.2398408756457269,-0.3769435536116361
1684131136520104400,2.5551044921875,-0.20963059242963789,-0.3216606423288584,-0.3892424786925316
1684131136530076200,2.565076171875,-0.17092063028514384,-0.25039149575456976,-0.29725860700011253
1684131136540049400,2.57504931640625,-0.07923369571268558,-0.11933569673746823,-0.16448212167024612
1684131136550021400,2.585021484375,0.016166121903061867,-0.06767141434326768,-0.12123685418367385
1684131136559993300,2.594993408203125,0.1180237373560667,-0.050166445051878686,-0.0890624312877655
1684131136569966300,2.60496630859375,0.14129180021882057,-0.048548780722171066,0.054199207699298854
1684131136579938300,2.614938232421875,-0.041993806120753284,0.008710106808692216,0.30226211437582967
1684131136589910300,2.62491015625,-0.1662947240501642,-0.05138824193179607,0.18399229330420494
1684131136599883300,2.63488330078125,-0.08989595950245857,-0.01825154987499118,0.10541969184875488
1684131136609855500,2.64485546875,-0.09733341602683067,0.022255670949816703,0.12002104865312575
1684131136619827200,2.6548271484375,0.029257658666372297,0.012103694769740103,-0.005430792877078056
1684131136629800200,2.66480029296875,0.007765957826375961,0.09012772243171929,-0.08132979120910168
1684131136639772400,2.6747724609375,0.014223755663633346,0.05720774186551571,-0.18180325882732867
1684131136649744400,2.684744384765625,0.12458324200212954,0.06667232030332088,-0.09165829299986362
1684131136659717400,2.69471728515625,0.023013211318850518,0.1097377011783421,0.006050386080145836
1684131136669689300,2.704689453125,-0.010284078127145766,0.10967501120567322,-0.004682604858279228
1684131136679661300,2.714661376953125,0.10012859970331191,-0.055555298483371734,0.011729016238451004
1684131136689634300,2.72463427734375,0.23586568840444086,-0.13759952157214284,0.20072130978703498
1684131136699606500,2.7346064453125,0.14502631057202814,-0.1050242627903819,0.21995909422039983
1684131136709578200,2.744578125,0.11191197647750377,-0.14841025392189622,0.31302257784307
1684131136719551200,2.75455126953125,0.1365495741277933,-0.09531330837607384,0.2170633727788925
1684131136729523500,2.7645234375,-0.03172141843140125,0.013249649934470652,0.11783259869813918
1684131136739495200,2.7744951171875,0.022075053685903546,0.12535071924328803,0.12644728230834007
1684131136749467400,2.78446728515625,0.18024433894753455,0.05834799794182181,0.12413608275651931
1684131136759440100,2.794440185546875,0.14673311448991297,0.12056567692384124,0.08385667933821678
1684131136769412400,2.804412353515625,0.13805471799373625,0.10543810428828,0.04586918624937534
1684131136779384300,2.81438427734375,-0.01595160236954689,0.0933797099649906,-0.034979543444514274
1684131136789357300,2.824357421875,-0.026684593307971953,0.1387801096588373,0.0035620763957500455
1684131136799329300,2.834329345703125,0.01341886902153492,0.1636360262349248,0.21730945649445055
1684131136809301500,2.844301513671875,0.01816986294090748,0.10984452255368232,0.36049218502640723
1684131136819274200,2.854274169921875,0.11531915457248687,0.05594517458379268,0.391270769649744
1684131136829246200,2.86424609375,0.23087679407596587,-0.043814591807127,0.34597733746170994
1684131136839218400,2.874218505859375,0.16791852585971354,-0.01812047084122896,0.2973778494656086
1684131136849191200,2.884191162109375,0.1084253034055233,0.05969312894046306,0.14839081856906414
1684131136859163400,2.894163330078125,0.15324351929724214,0.1875996701464057,0.14195114091038702
1684131136869135400,2.90413525390625,0.21248715090453624,0.32220600125193594,0.23177111256718635
1684131136879108000,2.914108154296875,0.30327684437632557,0.2888955600634217,0.27645547294616696
1684131136889080300,2.924080322265625,0.33982933622598643,0.3148696670144796,0.33622692781984803
1684131136899052300,2.93405224609375,0.23773498940765855,0.2842106171175837,0.3813239606529474
1684131136909025300,2.944025390625,0.1327460901916027,0.3263914702430367,0.3644569970041513
1684131136918997200,2.953997314453125,0.03440145129561424,0.2733718277171254,0.39269291140735146
1684131136928969500,2.963969482421875,0.24179975462853906,0.10917290690243243,0.3211573689818382
1684131136938942200,2.973942138671875,0.29685645594000815,0.02476414663940668,0.0658306087821722
1684131136948914200,2.9839140625,0.2763970207571983,0.059576809084415434,-0.03215688723921776
1684131136958886400,2.993886474609375,0.2798743414789438,0.22493717489391565,-0.060818918099999425
1684131136968859100,3.003859130859375,0.3114449532628059,0.3894464768320322,-0.19037293425202367
1684131136978831400,3.013831298828125,0.2638584417015314,0.5448851680859923,-0.18122049050331115
1684131136988803300,3.02380322265625,0.18846973097920416,0.5941933888733386,-0.18192951555550096
1684131136998776300,3.0337763671875,0.1311205348163843,0.553513295699656,-0.10330196904242038
1684131137008748300,3.043748291015625,0.08089023074805736,0.4846259296953678,0.1539870311409235
1684131137018720500,3.053720458984375,0.04716156414747238,0.36644378690719603,0.29717794297933575
1684131137028693200,3.063693359375,0.04652560433149337,0.2796598219454288,0.44381519587934015
1684131137038665200,3.073665283203125,0.03553133210837841,0.22996990836411713,0.48611236886084075
1684131137048637400,3.083637451171875,-0.04041208988726139,0.1777557370021939,0.4366793526500463
1684131137058610200,3.093610107421875,-0.08176116836369036,0.14940233369916678,0.3414484618604183
1684131137068582400,3.10358251953125,-0.1134048453837633,0.17682488589286804,0.21913608739972112
1684131137078554400,3.113554443359375,-0.0965782137453556,0.26337942601293324,0.14300971005260943
1684131137088527000,3.123527099609375,-0.0443938529998064,0.43130730422288177,0.09020809419155121
1684131137098499300,3.133499267578125,-0.014976619857549667,0.6136801796317101,0.022780571606755257
1684131137108471300,3.14347119140625,0.024223171630501746,0.7460185658052563,0.008738602250814437
1684131137118444300,3.1534443359375,0.11161094770431518,0.7396206814616918,-0.009006313276290893
1684131137128416300,3.163416259765625,0.2022720463603735,0.6313838863655924,0.011761164942383766
1684131137138388500,3.173388427734375,0.21721125681698322,0.4708233220532536,0.03696633334755897
1684131137148360200,3.183360107421875,0.1540694487273693,0.34450375777781006,0.07826631198525429
1684131137158333200,3.193333251953125,0.023471476480364798,0.2685293561220169,0.14387947862446307
1684131137168305400,3.203305419921875,-0.13582710507214069,0.2460071431905031,0.167315299269557
1684131137178277400,3.21327734375,-0.23052841902971266,0.23362200113087891,0.1855798547565937
1684131137188250400,3.22325048828125,-0.2489659929960966,0.2417088614746928,0.1135492222905159
1684131137198222300,3.233222412109375,-0.16652327210903167,0.25646570110172034,0.03608896599113941
1684131137208194300,3.2431943359375,0.01969955672621727,0.2530389415234327,0.015942250019311904
1684131137218167300,3.253167236328125,0.03566927927434444,0.21722820795178413,-0.038002106136083603
1684131137228139500,3.263139404296875,0.013891747230291365,0.19913141024708747,-0.059007484763860696
1684131137238111200,3.273111328125,-0.03496843752861023,0.2012628693178296,-0.08420739247202873
1684131137248084200,3.283084228515625,-0.06739128222763538,0.22215718878656623,-0.09703530986309052
1684131137258056400,3.293056396484375,-0.06234101310074329,0.23015637084692717,-0.06710019032657145
1684131137268028200,3.303028076171875,-0.006623802053928375,0.19865210229754446,-0.02506955932676792
1684131137278001400,3.31300146484375,0.05110124168395996,0.1459340730667114,0.03613163608908653
1684131137287973400,3.322973388671875,0.07475567351579665,0.09322364262044429,0.09787000712156295
1684131137297945300,3.3329453125,0.0558615879535675,0.04725830252021551,0.12053192078471182
1684131137307918300,3.34291845703125,0.06334814431667328,-0.014509294606745242,0.16572773781716824
1684131137317890300,3.352890380859375,0.2384609655946493,-0.053072541756927966,0.22756197043955326
1684131137327862300,3.3628623046875,0.20943711568415163,-0.07758037554770708,0.17934417523741722
1684131137337835800,3.372835693359375,0.17580021902024745,-0.08452946403324603,0.15247662657797337
1684131137347808000,3.38280810546875,0.17769465446472166,-0.08393003683537244,0.09932254401743411
1684131137357779700,3.39277978515625,0.1638204428911209,-0.05351034865230322,0.07268471246063708
1684131137367752000,3.402751953125,0.11591945855319499,-0.023142682917416096,0.05549217011928558
1684131137377725000,3.412724853515625,0.10145487987101078,0.009956453607976435,0.032981647625565526
1684131137387696600,3.422696533203125,0.21794074013531206,0.04478869753628969,0.057953591796755785
1684131137397668900,3.4326689453125,0.13971885181367397,0.047262978695333004,0.03640343876779079
1684131137407641900,3.442641845703125,0.09635667994916439,0.07386866154819727,0.04479308145046234
1684131137417613800,3.45261376953125,0.05057108033001423,0.0729953858450055,0.0818815798729658
1684131137427585800,3.462585693359375,0.03377835096120834,0.03955634984076023,0.08995499621331692
1684131137437558800,3.472558837890625,0.05429916094243526,0.004276654405891895,0.1371194829702377
1684131137447530800,3.48253076171875,0.0756774645358324,-0.028699148000776765,0.15857143632173537
1684131137457502700,3.492502685546875,-0.016426234143972394,-0.027316315340250728,0.15930501129329203
1684131137467476000,3.50247607421875,-0.06472995406389236,-0.02641878197863698,0.1502227101713419
1684131137477447700,3.51244775390625,0.0717564916998148,0.030327918246388433,0.252430454236269
1684131137487420000,3.522419921875,0.09151040896177291,0.09617080198824406,0.20280162319242953
1684131137497393000,3.532392822265625,0.029084055665135382,0.1353026428066194,0.1535994931280613
1684131137507364900,3.54236474609375,0.08123568318486213,0.20055355200469493,0.1655032814115286
1684131137517336800,3.5523369140625,0.12704174107015132,0.27326953638643026,0.25773849751651284
1684131137527309800,3.562309814453125,0.11145838749110698,0.30177783799022434,0.2327794128268957
1684131137537281800,3.57228173828125,0.10997428641319275,0.341997327914834,0.20729835008978842
1684131137547253800,3.582253662109375,0.03403027989566326,0.3510936575621366,0.12384615989923477
1684131137557227000,3.59222705078125,0.030367081212997436,0.34573563766032456,0.10341653533279895
1684131137567198700,3.60219873046875,0.18182897779047488,0.27299159622788427,0.14072539850771426
1684131137577171000,3.6121708984375,0.1599959161669016,0.2448616264171898,0.16908523155152796
1684131137587142700,3.622142578125,0.20548867031931875,0.24487185555025934,0.1487058758676052
1684131137597115600,3.63211572265625,0.15630524495542047,0.20843962907940147,0.0831453161984682
1684131137607087900,3.642087890625,0.14602759656906128,0.2116287805095315,0.15832769069373606
1684131137617059600,3.6520595703125,0.10070084663331508,0.195792036691308,0.10653262152671814
1684131137627032800,3.66203271484375,-0.02180617361664772,0.209359958794713,0.026593992415070534
1684131137637004800,3.6720048828125,0.0413221904695034,0.14333119709193706,0.03999591030180454
1684131137646976800,3.681976806640625,0.050509705531597136,0.07188304068893193,0.058408934348821634
1684131137656949800,3.69194970703125,-0.06768763482570647,-0.033249943172931666,-0.10026187069416045
1684131137666921700,3.701921630859375,-0.09582067337632179,-0.10269012075439095,-0.18935469712018965
1684131137676893700,3.711893798828125,-0.09683774146437645,-0.16570084981024263,-0.23147885162234305
1684131137686866700,3.72186669921875,-0.2166810954630375,-0.19294804543703795,-0.3673901278465986
1684131137696839000,3.7318388671875,-0.1398345871478319,-0.2703650471165776,-0.3183779673963785
1684131137706810600,3.741810546875,-0.1624953317672014,-0.3169023418858647,-0.31546880195140836
1684131137716782800,3.751782958984375,-0.25794775635302064,-0.3573996258385479,-0.3847632874518633
1684131137726755800,3.761755859375,-0.3188262956857681,-0.4460384248867631,-0.38013796573877334
1684131137736727800,3.771727783203125,-0.3630564825564623,-0.5524338298998773,-0.4252764996260404
1684131137746699800,3.78169970703125,-0.40501112571060655,-0.6130129478946328,-0.5085661927312612
1684131137756672800,3.7916728515625,-0.30088965697884557,-0.6928511853717267,-0.484690811625123
1684131137766644700,3.801644775390625,-0.08599661397635937,-0.6282791983485222,-0.4259773413717747
1684131137776616700,3.81161669921875,-0.11938684240281582,-0.5929740762114525,-0.4493476955652237
1684131137786590000,3.82158984375,-0.09704349316954612,-0.5217134052045643,-0.48180502705574035
1684131137796561700,3.831561767578125,-0.04268237290680408,-0.40960941328629846,-0.3867658594459295
1684131137806534000,3.841533935546875,-0.015700842478871345,-0.29321649200245736,-0.27115385940670966
1684131137816507000,3.8515068359375,0.01742985822856426,-0.17641367474347353,-0.17805998064577577
1684131137826478600,3.861478515625,0.05576163471043109,-0.11776683998554945,-0.08531330788731574
1684131137836450800,3.871450927734375,0.07229132922887802,-0.11789981871545314,-0.012350363007187842
1684131137846423800,3.881423828125,0.06324526846408844,-0.12793459825664757,0.002351531562209129
1684131137856395800,3.891395751953125,0.048698856717348096,-0.1501768252030015,0.0050385786890983575
1684131137866367700,3.90136767578125,0.03458382212519646,-0.14616715117022394,0.0019967267751693726
1684131137876340000,3.911340087890625,0.050745267853140825,-0.11154299703463912,0.006744798085093498
1684131137886312700,3.921312744140625,0.05850947211384773,-0.07926525989472866,-0.0040641806989908215
1684131137896285000,3.931284912109375,0.09494096793234348,-0.03861380829364061,-0.012968202644586563
1684131137906257000,3.9412568359375,0.1008130748361349,0.0264952082157135,0.014874913048744201
1684131137916229600,3.951229736328125,0.07822071927785873,0.09819953133687376,0.05213876803815364
1684131137926201900,3.961201904296875,0.06591477993428707,0.1700596295416355,0.10278934334516525
1684131137936173800,3.971173828125,0.07416705997288227,0.2269534831523895,0.15109832396209238
1684131137946146800,3.981146728515625,0.09301438378393649,0.2601090260401368,0.195225050458312
1684131137956118800,3.991118896484375,0.1294908877879381,0.26506460262089965,0.2075473564147949
1684131137966091000,4.001091064453125,0.13946341574788093,0.2726759544074535,0.199714178571105
1684131137976063700,4.011063720703125,0.12384265276789665,0.2656266204178333,0.1972960115134716
1684131137986035700,4.02103564453125,0.1131914948940277,0.24982699373960493,0.20413784023225306
1684131137996008000,4.031008056640625,0.08658113586604595,0.2118395006507635,0.1735895572334528
1684131138005980000,4.04097998046875,0.06940262205004692,0.19200258128046988,0.16405717425644398
1684131138015953000,4.050952880859375,0.0670201108276844,0.17923896129727362,0.1602829164147377
1684131138025924600,4.060924560546875,0.04622457555830478,0.1621339511089027,0.1604658717662096
1684131138035896800,4.070896728515625,0.04255260904729366,0.1601513989895582,0.1410071380585432
1684131138045869800,4.080869873046875,0.024400866284966467,0.15430223456993697,0.11805062536299228
1684131138055841800,4.090841796875,0.009663315880298614,0.13441943023130296,0.08552256672382354
1684131138065813800,4.100813720703125,-0.003850830209255218,0.09735168233588337,0.06094517482817172
1684131138075786800,4.110786865234375,0.021041618984937668,0.07138327447324991,0.035976153266429896
1684131138085758700,4.1207587890625,0.04465513428449631,0.04824000703394413,0.041105917370319364
1684131138095730700,4.130730712890625,0.06287526610791683,0.025992519390583037,0.05364917260110378
1684131138105704000,4.140703857421875,0.09286065452694893,-0.0013958382725715636,0.03815641991496086
1684131138115675600,4.150675537109375,0.08681026844680309,-0.005252221439778804,0.04409223970472812
1684131138125648000,4.16064794921875,0.0891448488742113,-0.01743424214273691,0.0673205550789833
1684131138135620900,4.170620849609375,0.08383212941884995,-0.04438450064957142,0.05141162280738353
1684131138145592600,4.180592529296875,0.08706161285936832,-0.07493219912648201,0.04691138877868652
1684131138155564800,4.190564697265625,0.08088906170427798,-0.10503536870628595,0.029677345383167266
1684131138165536800,4.200536865234375,0.07147416762709617,-0.10880232002437114,-0.00608896452486515
1684131138175509800,4.210509765625,0.08229892850220202,-0.12062865915745496,-0.03166647337377071
1684131138185481700,4.220481689453125,0.08884206653535366,-0.12004413726776837,-0.043263387665152545
1684131138195454000,4.230453857421875,0.09568447977602482,-0.08393120587915182,-0.02149286988377571
1684131138205426700,4.2404267578125,0.09918576589524745,-0.06033464171439409,-0.01868599576950073
1684131138215399000,4.25039892578125,0.0757429309874773,-0.03884089504778385,-0.018800562059879303
1684131138225371000,4.260370849609375,0.04711304883062839,-0.04767360532283783,-0.018680150550603864
1684131138235343600,4.270343505859375,0.01342705232799053,-0.04711363335251808,-0.025129180559515952
1684131138245315800,4.28031591796875,0.009296820655465126,-0.06012713644355535,-0.03413549383580684
1684131138255287800,4.290287841796875,0.013942016112804411,-0.07266016254127025,-0.03210895644426345
1684131138265260800,4.3002607421875,0.021630817049741742,-0.08453150985985994,-0.023417700466513633
1684131138275232800,4.310232666015625,0.023030162453651425,-0.0971533832848072,-0.020649404796957968
1684131138285205000,4.320205078125,0.027154548907279967,-0.09943769482970237,-0.011418635115027427
1684131138295176700,4.3301767578125,0.032470775493979455,-0.08671981368437409,0.015137947899103164
1684131138305149700,4.340149658203125,0.05644727888703346,-0.06154007198140025,0.04093815958797931
1684131138315122000,4.350121826171875,0.062141106614470476,-0.030847412075847385,0.04762450548410416
1684131138325093600,4.36009375,0.08451309742033482,0.00028188568130135534,0.06947218015491963
1684131138335067100,4.370067138671875,0.09500351177453994,0.027007687782496213,0.0718693044245243
1684131138345038800,4.380038818359375,0.11065525441467762,0.05201996396407485,0.07720540475547313
1684131138355011000,4.390010986328125,0.11721534358263015,0.06646686085909605,0.0832891085833311
1684131138364984000,4.399984130859375,0.11936696865856647,0.06655877692624926,0.09621347208619117
1684131138374955800,4.409955810546875,0.08118833691179751,0.07566109792292118,0.12697861270606517
1684131138384928000,4.419927978515625,0.06943769336342812,0.08024725666940212,0.10611235028803348
1684131138394900000,4.42989990234375,0.07471066533029079,0.09673355043753981,0.11537059249877929
1684131138404873000,4.439873046875,0.07233750645816325,0.11228694726973772,0.13629063093066215
1684131138414845000,4.449844970703125,0.050769817772507664,0.10555793127566575,0.11630641204416751
1684131138424817200,4.459817138671875,0.052687634092569345,0.11199132532402872,0.09508768292665482
1684131138434790000,4.469789794921875,0.053474400556087494,0.1124313241764903,0.08641805425882339
1684131138444762000,4.47976220703125,0.0345820685595274,0.1203818447895348,0.06668810239434242
1684131138454734000,4.489734130859375,0.031627894929051395,0.1090180086016655,0.05450315908193588
1684131138464706800,4.499706787109375,0.032030045989155764,0.09942863474041223,0.048368601849675175
1684131138474679000,4.509678955078125,0.04690145190656185,0.07940642193108796,0.04456687147915363
1684131138484650800,4.519650634765625,0.03718494453430175,0.057059565566480154,0.028958383458852766
1684131138494623000,4.529623046875,0.01884673928916454,0.03774550102651119,0.03305179025232792
1684131138504596000,4.539595947265625,0.00741875182390213,0.015867869608849287,0.02612345229387283
1684131138514568000,4.54956787109375,0.007759528085589409,0.00559533578902483,0.01708615935742855
1684131138524540000,4.559539794921875,0.01877835022807121,-0.006069383041560649,0.006361936247348785
1684131138534513000,4.569512939453125,0.020191139635443688,-0.008361877892911434,0.002101356193423271
1684131138544484900,4.57948486328125,0.01825461861491203,-0.0005343991376459598,-0.0019195698857307434
1684131138554456800,4.589456787109375,0.014742811101675033,-0.0011230126805603503,-0.015392799443006514
1684131138564430000,4.59943017578125,0.015585691666603087,0.008191489762067794,-0.018865443989634512
1684131138574401800,4.60940185546875,0.011363105535507201,-0.005394990911334753,-0.02924479918479919
1684131138584374000,4.6193740234375,0.0006079027652740478,-0.016424480578303337,-0.02925707414448261
1684131138594347000,4.629346923828125,0.006835983499884605,-0.02485314009711146,-0.009213234025239945
1684131138604319000,4.639319091796875,0.016724340307712554,-0.03800634391978383,-0.00680091218650341
1684131138614291000,4.649291015625,0.0247217688024044,-0.06597761603742837,-0.0037953006297349926
1684131138624263200,4.65926318359375,0.023598902252316475,-0.08006926975399255,-0.01049742861688137
1684131138634236000,4.66923583984375,0.030454174974560735,-0.07438114111497998,-0.018076339438557625
1684131138644207900,4.679207763671875,0.026277181550860403,-0.06549143995568156,-0.031232173609733578
1684131138654180000,4.68918017578125,0.016565350353717805,-0.04949205292165279,-0.03591711655557155
1684131138664152800,4.69915283203125,0.0264560452491045,-0.03554959841743111,-0.03293722396194935
1684131138674125000,4.709125,0.02941840218603611,-0.02748860316723585,-0.02443827568590641
1684131138684097000,4.719096923828125,0.023688334101438523,-0.019771745179593563,-0.02524082424044609
1684131138694069800,4.72906982421875,0.016142741027474403,-0.01790273643732071,-0.03174713739454746
1684131138704042000,4.7390419921875,0.00038461540341377254,-0.0032516952723264693,-0.023331775748729706
1684131138714014000,4.749013916015625,-0.011684592574834823,0.016724486438184975,-0.012009586745500563
1684131138723986000,4.75898583984375,0.021002456018328664,0.04779942365959287,0.01687690052092075
1684131138733959000,4.768958984375,0.02785363708734512,0.06001257015317678,0.03334171310961246
1684131138743931100,4.77893115234375,0.02033376297652721,0.046114831573516125,0.032682372418045995
1684131138753902800,4.78890283203125,0.015947510716319082,0.04254559478461742,0.0334533567905426
1684131138763875800,4.798875732421875,0.02972819878757,0.04444149153381586,0.03189268334507942
1684131138773848000,4.80884814453125,0.022741993162035942,0.04683817741200327,0.023937340426445006
1684131138783820000,4.818820068359375,0.020234394255280494,0.03731748487278819,0.02825929527878761
1684131138793793000,4.82879296875,0.026352000352740285,0.04737272268012166,0.022359131324291227
1684131138803765000,4.838764892578125,0.03386135306954384,0.05419511604607105,0.005213350734114647
1684131138813737000,4.848737060546875,0.01721592321693897,0.05439677609801292,0.007657236754894256
1684131138823709000,4.858708984375,0.03172843269407749,0.05539543174654245,0.02542027246057987
1684131138833682200,4.86868212890625,0.03377776643931865,0.04452931594774127,0.025523732835054398
1684131138843654000,4.87865380859375,0.04999766435623169,0.03255129338428378,0.031306407889723775
1684131138853626000,4.888626220703125,0.049129064828157425,0.014279577504098414,0.038111411729454994
1684131138863599000,4.89859912109375,0.05508651192784309,-0.0025413550458848475,0.04212941519916057
1684131138873570800,4.90857080078125,0.052536242923140526,-0.009144114311784505,0.046323944279551506
1684131138883543000,4.91854296875,0.058143561410903925,-0.014310849425196647,0.0348082785308361
1684131138893514800,4.9285146484375,0.06255611715614795,0.002889291700720787,0.026197102051973342
1684131138903488000,4.938488037109375,0.05211597168445587,-0.00007379588857293128,0.024146599262952803
1684131138913460000,4.9484599609375,0.05507423696815967,-0.005134294148534536,0.029637597894668577
1684131138923432000,4.958431884765625,0.054926352930068964,-0.016614304061979054,0.020449498310685158
1684131138933405000,4.968405029296875,0.03626607612371444,-0.012645108170062303,0.026911972323060033
1684131138943377000,4.978376953125,0.030306875458359715,-0.02727116102427244,0.026061492973566053
1684131138953348900,4.988348876953125,0.029174072036147115,-0.04185001373589039,0.022148118922114372
1684131138963321900,4.99832177734375,0.03647358139455318,-0.05242869089543819,0.01380523799061775
1684131138973294000,5.008294189453125,0.05049567700624465,-0.08383432137593627,-0.003398410266637802
1684131138983265800,5.018265869140625,0.05781213749945163,-0.08994155220985411,-0.012604630029201506
1684131138993238000,5.028238037109375,0.05834755955040455,-0.0457021591193974,-0.007741992428898811
1684131139003211000,5.0382109375,0.04748480475246906,0.039708617793023586,0.0018570260435342787
1684131139013183000,5.048182861328125,0.027642624685168263,0.10607274893000722,0.02381166822016239
1684131139023155000,5.058155029296875,0.00783785401880741,0.15445304121747613,0.05694587605893611
1684131139033128000,5.0681279296875,0.0008288520395755767,0.14395561260059475,0.08502513859570025
1684131139043100000,5.078099853515625,0.011557166802883148,0.08196399745941162,0.08384498890042305
1684131139053072000,5.08807177734375,0.022198387804627417,0.005645604671537876,0.05952887828946113
1684131139063044000,5.098044189453125,0.03728840490877628,-0.06792962688803672,0.014858546435832976
1684131139073016800,5.108016845703125,0.044455812320113176,-0.11210340739637613,-0.018104981011152266
1684131139082989000,5.117989013671875,0.05178747038245201,-0.08518997376859187,-0.02182955449223518
1684131139092961000,5.1279609375,0.04539396995306015,-0.037992899916321037,-0.020649404796957968
1684131139102933800,5.137933837890625,0.04016892878115177,0.012548369797319173,-0.005521393769979476
1684131139112906000,5.147906005859375,0.0254974293500185,0.047078562039136886,0.011731938847899435
1684131139122878000,5.1578779296875,0.01777063449025154,0.05216989382877946,0.011923662027716636
1684131139132850000,5.167849853515625,0.003065232789516449,0.032696839334815736,0.01077799912393093
1684131139142823000,5.177822998046875,0.0013344634741544723,0.007203501638025045,0.018058803781867028
1684131139152795100,5.187795166015625,0.011713234147429466,-0.014850363129377365,0.017571897047758103
1684131139162766800,5.197766845703125,0.027685294783115384,-0.015685937170684335,0.004206219518184662
1684131139172740000,5.207739990234375,0.0345382294178009,-0.005602203921228647,0.005059621477127075
1684131139182712000,5.217712158203125,0.03360767056941986,0.0035340193450450895,-0.001994388687610626
1684131139192684000,5.22768408203125,0.037493572092056275,0.02199088253378868,0.010175357055664061
1684131139202656000,5.237656005859375,0.04556640391051769,0.031526480381190776,0.022809797701239583
1684131139212629000,5.24762890625,0.036038697108626366,0.030193478211760518,0.024833997005224227
1684131139222601000,5.25760107421875,0.042646132549643515,0.022820465225726366,0.02319382858276367
1684131139232573000,5.267572998046875,0.041220483660697936,0.018811667975783347,0.03293663944005966
1684131139242546200,5.277546142578125,0.02216740814447403,0.003843962077051401,0.026577041280269623
1684131139252518000,5.287517822265625,0.02239829429090023,0.014547873051464556,0.022658406531810758
1684131139262490000,5.297489990234375,0.022614567390084266,0.01575096523091197,0.023346973317861557
1684131139272463000,5.307463134765625,0.02684066065251827,0.011718640974909067,0.015931728625297546
1684131139282434800,5.317434814453125,0.028811668464541435,0.019155074585974215,0.0103349315315485
1684131139292407000,5.327406982421875,0.01949906571805477,0.023812837263941764,0.002122398981451988
1684131139302379000,5.33737890625,0.010189970102906227,0.022817104224860666,0.014056582403182983
1684131139312352000,5.34735205078125,0.012485387563705444,0.008336451190710067,-0.0043301381587982175
1684131139322324000,5.357323974609375,0.005616086316108704,0.007160100887715816,0.009019757279753685
1684131139332296000,5.3672958984375,0.0024146599262952805,-0.001665741255134344,0.01277706398665905
1684131139342268200,5.37726806640625,-0.00025602058768272397,0.006338847632706165,0.0015419687449932098
1684131139352241200,5.3872412109375,0.024898878934979437,0.0060812196098268025,-0.0011789806514978407
1684131139362213400,5.39721337890625,0.03140519208908081,0.009007774581015109,0.0041524435043334956
1684131139372185300,5.407185302734375,0.043452188235521313,0.013382044142484664,0.008041852158308029
1684131139382158300,5.417158447265625,0.042726212048530575,0.012087912678718567,0.010700842234492301
1684131139392130300,5.42713037109375,0.040133857467770574,0.004836918637156486,0.01915185971558094
1684131139402102300,5.437102294921875,0.03383095793128013,-0.004702040211111307,0.023720482805371285
1684131139412074200,5.44707421875,0.0408253468632698,-0.02703501418083906,0.014703063613176345
1684131139422047500,5.457047607421875,0.03374152608215809,-0.028237521838396788,0.011101239728927612
1684131139432019200,5.467019287109375,0.043189737907052037,-0.03672828680798411,0.018362170642614365
1684131139441991400,5.476991455078125,0.04935936645269394,-0.029077333663403985,0.023899931025505066
1684131139451964400,5.48696435546875,0.05156710563004017,-0.007627280008047819,0.02169452993571758
1684131139461936000,5.49693603515625,0.034305589705705644,0.010313304221630095,0.032364392510056496
1684131139471908400,5.506908447265625,0.035060207465291024,0.026913141366839408,0.028708792611956593
1684131139481880000,5.516880126953125,0.050748190462589264,0.034779783088713885,0.028589550146460533
1684131139491853300,5.526853271484375,0.04466097950339317,0.02840016505420208,0.029112697237730023
1684131139501825300,5.5368251953125,0.0406032285451889,0.02297097961232066,0.021312252619862554
1684131139511797200,5.54679736328125,0.02733750425875187,0.037482466176152224,0.02887596587240696
1684131139521770200,5.556770263671875,0.023670213922858237,0.031884061647206544,0.03801730370521545
1684131139531742200,5.5667421875,0.028854338562488556,0.02504121001511812,0.0417751949340105
1684131139541714200,5.576714111328125,0.03167173407077789,0.004644172544032335,0.03475391799509525
1684131139551686400,5.586686279296875,0.02491758363544941,-0.001678162345290184,0.016627894195914268
1684131139561659400,5.596659423828125,0.04061901063621044,-0.007923486475646495,0.017191373297572136
1684131139571631000,5.606631103515625,0.022254501906037328,-0.015159282948076724,-0.002883446481823921
1684131139581603300,5.616603271484375,0.02906242835521698,-0.011502660136669873,-0.009481529572606087
1684131139591575300,5.6265751953125,0.02799626042842865,-0.005201952557265758,-0.002091419321298599
1684131139601548300,5.63654833984375,0.019323709151148796,0.011171090094745158,-0.000699088180065155
1684131139611520300,5.646520263671875,0.0141167881578207,0.015282470936328172,-0.0030260698229074476
1684131139621492500,5.656492431640625,0.0021159692406654356,0.00048602995127439494,0.00807400086224079
1684131139631465200,5.66646533203125,0.007219429859519004,0.001035188266634941,0.0037760114073753354
1684131139641437200,5.676437255859375,0.015353636476397514,-0.006543576424568891,0.002972293809056282
1684131139651409400,5.686409423828125,0.026600422155857086,-0.00944908860772848,0.007311199796199798
1684131139661382100,5.696382080078125,0.03413783192336559,-0.00673705317005515,0.005030979904532432
1684131139671354400,5.706354248046875,0.030924715095758438,-0.015051292528957127,0.0012409399718046187
1684131139681326300,5.716326416015625,0.023791794475913047,0.00374357044249773,-0.0008574936121702193
1684131139691298300,5.72629833984375,0.012214169406890869,0.014504326170682907,0.0032277298748493192
1684131139701271300,5.736271240234375,0.014534721308946608,0.009946078344434499,-0.004195698124170303
1684131139711243300,5.7462431640625,0.018607085314393042,0.0010454173997044563,0.0026467151165008545
1684131139721215200,5.75621533203125,0.026633155381679534,0.015448475152999162,0.01911561935842037
1684131139731187500,5.7661875,0.02381225274205208,0.02093874313235283,0.0328565599411726
1684131139741160400,5.776160400390625,0.03572597789764404,0.023408348116278645,0.029643443113565444
1684131139751132200,5.786132080078125,0.024631752431392668,0.020164397758990524,0.02604512636065483
1684131139761104400,5.7961044921875,0.029600773015618323,0.022458938436955213,0.018676643419265747
1684131139771077400,5.806077392578125,0.03870937762260437,0.03405965212062001,0.01071136362850666
1684131139781049300,5.81604931640625,0.025296353819966314,0.04409457779228687,0.012886954101920128
1684131139791021300,5.826021240234375,0.030167174726724623,0.03597118483036756,0.02817044795155525
1684131139800993300,5.8359931640625,0.03460661847889423,0.032017332638055084,0.023563830938935278
1684131139810966300,5.84596630859375,0.02778700159192085,0.023855799622833726,0.02973813565969467
1684131139820938200,5.855938232421875,0.020528993287682533,0.012884908275306224,0.023914544072747228
1684131139830910200,5.86591015625,0.023160510835051534,0.0028089199408888816,0.018138883280754088
1684131139840882200,5.875882080078125,0.023949615386128425,-0.0012878478534519673,0.004357610687613487
1684131139850855400,5.88585546875,0.03388824107646942,0.002368044305592775,-0.004583820658922195
1684131139860827100,5.8958271484375,0.034118542701005936,-0.004874328038096428,-0.0014279869765043258
1684131139870799400,5.90579931640625,0.04686930320262909,-0.008545417766273022,-0.00014905308187007903
1684131139880772400,5.9157724609375,0.03074117522239685,-0.013223200318962335,0.01206686989068985
1684131139890744300,5.925744384765625,0.042188451910018916,-0.013523498439788818,0.01564648194313049
1684131139900716300,5.93571630859375,0.03915419878065586,-0.011133388432860374,0.026942951983213424
1684131139910688500,5.9456884765625,0.04649287110567093,-0.00465615524277091,0.027708675658702848
1684131139920661200,5.9556611328125,0.029780221235752104,-0.013899638275802135,0.02865150946676731
1684131139930633200,5.96563330078125,0.03861760768592357,-0.005028641816973686,0.039487960779666896
1684131139940605400,5.97560546875,0.039411972934007646,-0.00478664975464344,0.021848259192705152
1684131139950577200,5.9855771484375,0.035302784049510955,-0.00023614684343338012,0.022930209210515022
1684131139960550400,5.99555029296875,0.03076338705420494,-0.0007508183673024177,0.017747253614664078
1684131139970522400,6.0055224609375,0.023590134423971176,-0.0059985097624361515,0.006228665256500244
1684131139980494300,6.015494384765625,0.027454408636689184,-0.005241261654347181,0.005276479098200798
1684131139990467300,6.02546728515625,0.028797639939188956,0.0014919921234250067,0.008759060516953467
1684131140000439300,6.035439208984375,0.017456746235489845,-0.000608633417636156,0.016374796217679975
1684131140010411300,6.045411376953125,0.018259879311919212,0.014548019181936978,0.014781974068284034
1684131140020383200,6.05538330078125,0.012870002967119216,0.021626287005096674,0.016999650117754936
1684131140030356500,6.0653564453125,0.025361820271611213,0.02126373730301857,0.02156242798864841
1684131140040328200,6.075328125,0.012346271353960037,0.0169575645416975,0.008854337584972382
1684131140050300400,6.085300537109375,0.015230302357673644,0.011822832001745701,0.00981295348405838
1684131140060272000,6.095272216796875,0.014022095611691474,0.0061824880272150036,-0.0012537994533777237
1684131140070245400,6.105245361328125,0.013243512454628943,0.005307604888826608,-0.00007248071432113647
1684131140080217300,6.11521728515625,0.004540566039085388,0.006907295170426368,-0.0014513678520917891
1684131140090189300,6.125189208984375,0.0029939211189746857,0.004223609044402838,-0.0030208091259002682
1684131140100161300,6.135161376953125,0.010236731854081154,0.002730301746726036,-0.013455693900585174
1684131140110134300,6.14513427734375,0.021416882038116453,0.0015606734454631805,-0.01595510950088501
1684131140120106200,6.155106201171875,0.033060558080673215,0.0058976797364652155,-0.004875497081875801
1684131140130078200,6.165078125,0.037705753538012504,0.010354513014853,-0.002995674684643745
1684131140140051500,6.175051513671875,0.026277181550860403,0.013337035956978797,-0.01312602355480194
1684131140150023200,6.185023193359375,0.02865150946676731,0.024705986711382865,0.002437456279993057
1684131140159995400,6.194995361328125,0.020757541346549988,0.03569222175851464,0.01908697778582573
1684131140169967400,6.20496728515625,0.018611176967620848,0.03654620823934674,0.045154900500178334
1684131140179939300,6.214939208984375,0.023036592194437978,0.026334172435104844,0.0676695146471262
1684131140189911300,6.224911376953125,0.02912204958796501,0.009767068515717982,0.05999123510420322
1684131140199884300,6.23488427734375,0.028916297882795334,-0.005202829340100288,0.07029460245370864
1684131140209856300,6.244856201171875,0.032581834653019906,-0.01277531042098999,0.04849076692461967
1684131140219828500,6.254828369140625,0.037975218129158016,-0.012065408585965633,0.03922317236363888
1684131140229800200,6.26480029296875,0.04317161772847175,-0.0012720657624304293,0.020059622210264205
1684131140239773200,6.274773193359375,0.04790215338170528,0.018570552696287632,0.006104162093997001
1684131140249745400,6.284745361328125,0.04901332949399948,0.023373276802897452,0.004227262306213378
1684131140259717000,6.294717041015625,0.029677345383167266,0.008127776876091957,0.003585457271337509
1684131140269689300,6.304689453125,0.01973345899581909,-0.014252689497172831,0.007722118684649467
1684131140279662300,6.314662353515625,0.018135960671305656,-0.0362691448636353,-0.0005459434449672699
1684131140289634300,6.32463427734375,0.0167833770185709,-0.03589022854864597,0.002622165197134018
1684131140299606300,6.334606201171875,0.001277180328965187,-0.016773732407391072,-0.002809212201833725
1684131140309579300,6.344579345703125,0.01686521008312702,0.007703267853707074,-0.011226911935210228
1684131140319551200,6.35455126953125,0.019023849421739576,0.02980827828645706,-0.004869651862978935
1684131140329523200,6.364523193359375,0.01576689345240593,0.03638283437117934,0.007500584888458252
1684131140339495200,6.3744951171875,0.014455226331949234,0.01864770958572626,0.005761632266640663
1684131140349468200,6.38446826171875,0.024402035328745842,-0.014864099393785,0.0073503627628088
1684131140359440400,6.3944404296875,0.023088614642620086,-0.0343910760320723,-0.01348375095129013
1684131140369412000,6.404412109375,0.018085107266902923,-0.05225757211223244,-0.012579495587944984
1684131140379384300,6.41438427734375,0.011664134308695792,-0.04085428069680929,-0.0011579378634691238
1684131140389357300,6.424357421875,0.02655366040468216,-0.020151392146945,0.0010977321088314056
1684131140399329300,6.434329345703125,0.027073300364613532,0.0031366905905306336,0.001861117696762085
1684131140409301200,6.44430126953125,0.02310848838686943,0.013063625843077898,0.0023538696497678755
1684131140419273200,6.454273193359375,0.028597148931026457,0.015501520514488219,0.003505377772450447
1684131140429246200,6.46424609375,0.031157939329743384,0.019540566772222517,0.007879939594864846
1684131140439218200,6.47421826171875,0.031210546299815175,0.005423340222984552,0.026593992415070534
1684131140449190100,6.484190185546875,0.03835106570422649,-0.005339022940397262,0.025164836394786835
1684131140459162000,6.494162109375,0.022190789020061493,0.011323650307953357,0.032797523230314256
1684131140469135400,6.50413525390625,0.026046879926323888,0.02075958717316389,0.04143734128177166
1684131140479107000,6.514107177734375,0.020998364365100858,0.031492870372533795,0.036277766561508176
1684131140489079300,6.524079345703125,0.02978431288897991,0.03235445563793182,0.038135961648821826
1684131140499052300,6.53405224609375,0.03502922780513763,0.03976224767640233,0.03954933557808399
1684131140509024300,6.544024169921875,0.032148703932762146,0.01736030012369156,0.023949615386128425
1684131140518996200,6.553996337890625,0.03106616939306259,-0.006472995406389236,0.01097498300075531
1684131140528968400,6.563968505859375,0.03118599638044834,-0.01842500674575567,0.02027414174377918
1684131140538941200,6.573941162109375,0.03661912734508514,-0.018195289643108844,0.021268413478136062
1684131140548913200,6.5839130859375,0.03787526488602161,0.0010039163455367087,0.023116087171435356
1684131140558885400,6.593885498046875,0.03995148663818836,0.01876315265893936,0.021180735194683074
1684131140568857000,6.603857177734375,0.03133797207176685,0.03966360960751772,0.022195465195178985
1684131140578830300,6.613830322265625,0.030255437532067296,0.031276889534294604,0.018957798448204992
1684131140588802300,6.62380224609375,0.02647416542768478,0.02942746227532625,0.021201193460822103
1684131140598774300,6.633774169921875,0.026287118422985076,0.023142098395526407,0.01931611036658287
1684131140608746200,6.643746337890625,0.013204349488019943,0.00505655273720622,0.0219072959035635
1684131140618719000,6.653718994140625,-0.002653144857287407,-0.0045835283979773515,0.009343582406640053
1684131140628691200,6.663691162109375,0.009369885891675948,-0.012765811940282583,0.004025017732381821
1684131140638663200,6.6736630859375,0.011696867534518242,-0.003132891198247671,0.0032148703932762144
1684131140648635100,6.68363525390625,0.019770283874869347,0.00028027824610471724,-0.007071545821428299
1684131140658608000,6.693608154296875,0.027820319339632988,0.001983721163123846,-0.003663198682665825
1684131140668580400,6.703580322265625,0.03301379632949829,0.004889233346283436,-0.004126724541187286
1684131140678552000,6.713552001953125,0.024469839867949483,-0.00040302784293889997,-0.0032119477838277815
1684131140688524300,6.723524169921875,0.01445756441950798,0.00036401100680232045,-0.004653963285684585
1684131140698497300,6.733497314453125,0.025376433318853378,-0.010191431407630442,0.007483049231767654
1684131140708469200,6.74346923828125,0.021086627170443534,-0.01236512218490243,0.010378770673274994
1684131140718441200,6.753441162109375,0.014273440024256706,-0.015096592975407839,0.008062894946336746
1684131140728413200,6.7634130859375,0.02090250277519226,-0.018784049316495657,0.011249708288908004
1684131140738386200,6.77338623046875,0.02660977450609207,-0.025141893910616636,0.018164602243900298
1684131140748358100,6.783358154296875,0.030919454398751257,-0.01646934263333678,-0.0002653729379177093
1684131140758330000,6.793330078125,0.03386018402576446,-0.013781857115030287,0.0005769231051206588
1684131140768303000,6.80330322265625,0.035223873594403265,-0.01126622103229165,0.008690086933970451
1684131140778275300,6.813275390625,0.03777063546776771,0.002183481518924236,0.005080664265155792
1684131140788247000,6.8232470703125,0.026239187628030774,0.01853314329534769,0.002969371199607849
1684131140798219300,6.83321923828125,0.026302900514006612,0.023169424793869256,0.011007131704688072
1684131140808192300,6.843192138671875,0.018392565780878067,0.024459026212990283,0.0241729027479887
1684131140818164200,6.853164306640625,0.027493571603298187,0.029820260985195635,0.02932195607423782
1684131140828136200,6.86313623046875,0.030326164680719372,0.024778467425704002,0.034198622199892996
1684131140838109200,6.873109130859375,0.03299509162902832,0.02694733589738607,0.03917874870002269
1684131140848081200,6.8830810546875,0.020260113218426704,0.026193741051107642,0.03920329861938953
1684131140858053000,6.89305322265625,0.023527006059885024,0.022781740650534628,0.01813303806185722
1684131140868026400,6.9030263671875,0.0324251827865839,0.011522387750446795,0.012787000858783721
1684131140877998000,6.912998046875,0.031121114450693127,0.0033436113394796846,0.015272387933731079
1684131140887970300,6.92297021484375,0.028914544317126274,0.008618629132956267,0.00315232655107975
1684131140897942300,6.9329423828125,0.040274142721295356,0.005653641847521066,0.009398527464270591
1684131140907915000,6.9429150390625,0.029134909069538115,-0.00017477204501628875,0.017880524605512618
1684131140917887200,6.95288720703125,0.03340074982047081,0.01317658469825983,0.01105856963098049
1684131140927859200,6.962859130859375,0.027460838377475736,0.007543839508295059,0.011107084947824478
1684131140937831200,6.9728310546875,0.02555237440764904,0.005940934356302023,0.016235095486044883
1684131140947804200,6.98280419921875,0.032871757510304446,-0.004061111959069967,0.0009697218149900435
1684131140957776400,6.9927763671875,0.0317804551422596,-0.022795915306359528,0.012428104418516158
1684131140967748000,7.002748046875,0.03176233496367931,-0.01149433069974184,0.012924948024749755
1684131140977720300,7.01272021484375,0.0372656085550785,-0.01241845980733633,0.012592355069518089
1684131140987693300,7.022693359375,0.023779519516229627,-0.01185030453056097,0.01455342600941658
1684131140997665300,7.032665283203125,0.013534604355692863,-0.007663374234735966,0.005560556736588478
1684131141007637200,7.04263720703125,0.01361526837646961,-0.0036140988439321516,-0.011291793864965437
1684131141017610200,7.0526103515625,0.01111000755727291,0.00826835439056158,-0.016571780094504357
1684131141027582200,7.062582275390625,0.0057435120880603785,0.015010814388096332,-0.02138648689985275
1684131141037554200,7.07255419921875,0.013746785801649094,0.021295301485061643,-0.007339841368794441
1684131141047526100,7.082526123046875,0.020309797579050062,0.007524550285935402,0.010526654711365699
1684131141057499100,7.0924990234375,0.019798925447463988,0.0025490999609231947,0.018332944548130035
1684131141067471400,7.102471435546875,0.022513445103168488,0.0009470715917646884,0.017802198672294614
1684131141077443000,7.112443115234375,0.03193535344302654,0.0061325114056468,0.02381225274205208
1684131141087415300,7.122415283203125,0.013604746982455253,-0.007507306890189647,0.009960253000259399
1684131141097388300,7.13238818359375,0.02428571547269821,-0.020406535951793193,0.0046446109354496
1684131141107360000,7.142360107421875,0.03874444893598556,-0.028357641086727378,0.0031669395983219143
1684131141117332200,7.152332275390625,0.05371171644330024,-0.02776800463050604,-0.0017196633994579313
1684131141127304200,7.16230419921875,0.061167877668142315,-0.011151362480968235,0.007360884156823158
1684131141137277200,7.172277099609375,0.05205693497359752,0.01954524294734001,0.01741290709376335
1684131141147249200,7.182249267578125,0.03563011630773544,0.03333835210874676,0.016270166799426077
1684131141157221400,7.192221435546875,0.016782207974791526,0.05692439487949014,0.032308278408646585
1684131141167193000,7.202193115234375,0.00883563288450241,0.050705081973224875,0.03938742301464081
1684131141177166300,7.212166259765625,0.015208090525865555,0.019322832368314266,0.02879647089540958
1684131141187138300,7.22213818359375,0.02570259653329849,-0.007040712291747331,0.015215104788541793
1684131141197110300,7.2321103515625,0.024189269360899924,-0.014210311660170553,0.0083960724234581
1684131141207082200,7.242082275390625,0.019797756403684613,-0.02113148922547698,0.0021340894192457198
1684131141217055200,7.25205517578125,0.011323942568898201,0.00820697959214449,-0.00014846855998039245
1684131141227027200,7.262027099609375,0.013569675669074058,0.027304478771984577,0.003987023809552193
1684131141236999200,7.271999267578125,0.01761690523326397,0.04019669357091188,0.016352584385871886
1684131141246971100,7.28197119140625,0.014239537754654884,0.0293447524279356,0.010556465327739715
1684131141256944000,7.291944091796875,0.024137831434607505,0.011330372309684754,0.01108779572546482
1684131141266916400,7.301916259765625,0.027047581401467322,-0.01211129355430603,0.013031331008672714
1684131141276888000,7.31188818359375,0.02716565482318401,-0.031433103009313346,0.0058627545535564415
1684131141286860300,7.3218603515625,0.02758358797430992,-0.023029139540344475,0.003647416591644287
1684131141296833300,7.331833251953125,0.03056640317738056,-0.021818302445858716,0.007789923223853111
1684131141306805200,7.34180517578125,0.013512392523884772,-0.006603636048734188,0.00430734180510044
1684131141316777200,7.351777099609375,0.013587211325764655,0.008588380125164986,0.0017354454904794693
1684131141326749400,7.36174951171875,0.003590717968344688,0.028801147070527076,-0.007692892590165138
1684131141336722200,7.37172216796875,-0.01631225237548351,0.025805326255410908,-0.028294951114058494
1684131141346694100,7.381694091796875,-0.03132335902452469,0.03520341532826424,-0.04497252967059612
1684131141356666000,7.391666015625,-0.035113398957252503,0.03491641508042812,-0.05151625222563743
1684131141366638000,7.40163818359375,-0.03698445352613926,0.05264671756029129,-0.04419979173243046
1684131141376611300,7.411611328125,-0.03350654828250408,0.07686521301567555,0.002181435692310333
1684131141386583000,7.4215830078125,-0.01806347995698452,0.12336290642693638,0.1129740527510643
1684131141396555300,7.43155517578125,0.030503859335184097,0.1276499360963702,0.15858546484708785
1684131141406527200,7.44152734375,0.05372983662188053,0.09117693922370672,0.2007113729149103
1684131141416500000,7.4515,0.08875789538323879,0.0008060556858777999,0.18733342042565346
1684131141426472200,7.46147216796875,0.15174422065019608,-0.07954583040177822,0.1651665968030691
1684131141436444200,7.471444091796875,0.20496727679371832,-0.09632394672334194,0.14843582675457
1684131141446416100,7.481416015625,0.236935947984457,-0.10089344659596682,0.06422317358553409
1684131141456389000,7.49138916015625,0.20945055968761442,-0.08954977641329169,0.017259762358665467
1684131141466361300,7.501361328125,0.18415712847709656,-0.08144801076129078,-0.015233809489011764
1684131141476333000,7.5113330078125,0.16670681198239326,-0.1042316511079669,-0.05210895742177963
1684131141486305300,7.52130517578125,0.1122761336147785,-0.13275573480278252,-0.11731120517253875
1684131141496278300,7.5312783203125,0.07479191387295722,-0.1064412899814546,-0.0458142411917448
1684131141506250200,7.541250244140625,0.0791588769108057,-0.09076251320391893,-0.02457330024242401
1684131141516222200,7.55122216796875,-0.012348024919629096,-0.07378975109308958,-0.13534253642559052
1684131141526194200,7.561194091796875,-0.14729717811346052,0.041528380566090345,-0.12142565475404261
1684131141536167200,7.571167236328125,-0.13472177417874334,0.1601484763801098,0.011976268997788428
1684131141546139100,7.58113916015625,-0.10222820233106612,0.1190431435316801,-0.05233633643686771
1684131141556111000,7.591111083984375,-0.17499883950948714,0.09752426242381333,-0.1224549978017807
1684131141566083000,7.6010830078125,-0.19613047486543655,0.13694149605482817,-0.093968323507905
1684131141576056300,7.611056396484375,-0.15464403374493121,0.14450082539319992,-0.08048106542527675
1684131141586028000,7.621028076171875,-0.1107955396682024,0.13322948979437352,-0.12624562225639818
1684131141596000300,7.631000244140625,-0.05332067129909992,0.1389157187372446,-0.10886018769145012
1684131141605972200,7.64097216796875,-0.0015232640445232391,0.1102129174746573,-0.08456511986851692
1684131141615945200,7.6509453125,0.026268413722515104,0.097522070466727,-0.037893385064601895
1684131141625917200,7.660917236328125,0.020714286726713178,0.08192424997091292,0.029189854127168655
1684131141635889400,7.670889404296875,-0.040808395728468894,0.03512275130748749,0.07756430119574069
1684131141645861000,7.680861083984375,-0.10135200401842594,-0.023470453567057847,0.07146949145197867
1684131141655834000,7.690834228515625,-0.1349549984127283,-0.10059943208545445,0.024913491982221602
1684131141665806300,7.700806396484375,-0.1140980883449316,-0.12392039417922496,-0.029331892946362494
1684131141675778000,7.710778076171875,-0.02681143455803394,-0.09257672301903366,-0.06728665280938148
1684131141685750300,7.720750244140625,0.0609638795286417,-0.06075403617024421,-0.07012392206192017
1684131141695722000,7.730721923828125,0.1041115318596363,-0.05446706485524773,-0.04473872091472149
1684131141705695200,7.7406953125,0.10010697239339351,-0.11150485698133707,-0.007665420061349868
1684131141715667200,7.750667236328125,0.06707330231964588,-0.1706415210828185,0.02603109783530235
1684131141725639200,7.76063916015625,0.0788362208276987,-0.21983561397120355,0.061709729459881776
1684131141735611100,7.770611083984375,0.12729717713594435,-0.2326195460900664,0.11023381413221359
1684131141745584000,7.780584228515625,0.173801738679409,-0.18909210066124796,0.13218611822128296
1684131141755556000,7.79055615234375,0.20704349854588508,-0.12228899358510971,0.15766601191461085
1684131141765528300,7.8005283203125,0.2186754841506481,-0.057943508794158695,0.17290391305685043
1684131141775500000,7.8105,0.23508768976926803,-0.00976692238524556,0.17440847240090368
1684131141785473000,7.82047314453125,0.24883330652713775,0.011334317832440138,0.18342589159309863
1684131141795445200,7.8304453125,0.23378303691148755,0.012790215729176997,0.1898310824602842
1684131141805417000,7.8404169921875,0.19265256962180136,0.012983400213718414,0.20110709423422812
1684131141815389200,7.85038916015625,0.12792203103601932,-0.0023398411244153973,0.17680618119239805
1684131141825362200,7.860362060546875,0.05645896932482719,0.00448927424326539,0.12766425688266753
1684131141835334100,7.870334228515625,-0.014576806885004043,0.030347353599220514,0.06355448054373264
1684131141845306000,7.88030615234375,-0.04789864625036716,0.06096914022564888,0.012324644044041632
1684131141855278300,7.8902783203125,-0.06228197638988495,0.06989844274297356,-0.02415419804751873
1684131141865251000,7.9002509765625,-0.0636655397027731,0.08193316392973064,-0.09150047208964825
1684131141875223000,7.91022314453125,-0.07562719565331935,0.10178937252238392,-0.15745207690298557
1684131141885195300,7.9201953125,-0.11110416722595691,0.15083119745850562,-0.18237375219166277
1684131141895167200,7.930167236328125,-0.15345102456808088,0.18453209926933048,-0.16931611769795415
1684131141905140200,7.94014013671875,-0.18508885636925695,0.20207447796165942,-0.14401158057153224
1684131141915112200,7.9501123046875,-0.18131693661510942,0.20917437309473752,-0.10216916562020778
1684131141925084200,7.960084228515625,-0.15135259098410606,0.169898301500082,-0.05980243453383446
1684131141935056100,7.97005615234375,-0.10489362214803695,0.12832009044289588,-0.022971710264682768
1684131141945028000,7.980028076171875,-0.06702829413414,0.07026435344591736,-0.012121230426430702
1684131141955001000,7.9900009765625,-0.028816344639658927,0.03840133458673954,-0.01088905828297138
1684131141964973300,7.999973388671875,-0.0017184943556785583,0.042190497736632825,-0.02678746916055679
1684131141974945000,8.009945068359375,0.0260246680945158,0.05689531491547822,-0.03817980079054832
1684131141984917200,8.019917236328125,0.05662263545393943,0.07204583003520965,-0.06656184566617011
1684131141994890200,8.02989013671875,0.06069909111261367,0.08267536059916018,-0.04765782323181629
1684131142004862000,8.039862060546875,0.04997837513387203,0.07104805116951465,-0.021689269238710403
1684131142014834200,8.049834228515625,0.04354337365031242,0.027007249391078948,0.009312018224596976
1684131142024806100,8.05980615234375,0.044514849030971526,-0.05157704250216484,0.03215864080488682
1684131142034779100,8.069779052734376,0.05682838715910911,-0.11581599817872047,0.04767886601984501
1684131142044751000,8.079751220703125,0.06062018065750598,-0.13805340281948447,0.05853168394565582
1684131142054723300,8.089723388671874,0.07804068653583526,-0.1569743763886392,0.05507657505571842
1684131142064695000,8.099695068359376,0.08917582853436469,-0.14837109095528722,0.020078326910734176
1684131142074668300,8.109668212890625,0.0898076966971159,-0.13116875787228346,-0.01704874995648861
1684131142084640300,8.11964013671875,0.10028758965730666,-0.10017053914889693,-0.04470540316700935
1684131142094612200,8.1296123046875,0.08487491647005081,-0.048859600237011906,-0.04967208566367626
1684131142104584200,8.139584228515625,0.062081485381722444,-0.02496492990851402,-0.038030747708678245
1684131142114556200,8.14955615234375,0.038596564897894856,-0.020090017348527906,-0.009090484428405762
1684131142124529200,8.159529052734374,0.017537410256266595,-0.030001462770998476,0.015615502282977103
1684131142134501000,8.169501220703125,0.011583470287919043,-0.04531418271511793,0.02599018130302429
1684131142144473000,8.17947314453125,-0.0014057751446962356,-0.05562266463115811,0.028774843585491178
1684131142154445000,8.189445068359374,0.012402385455369948,-0.058503626894950866,0.015802549287676812
1684131142164418300,8.199418212890626,0.003571428745985031,-0.05345584198608994,0.017080314138531685
1684131142174390000,8.20939013671875,0.025184710139036177,-0.04295271428078413,0.01068564466536045
1684131142184362200,8.2193623046875,0.029234862312674522,-0.028817659813910722,0.012640870386362075
1684131142194334200,8.229334228515626,0.03388648751080036,-0.0034410803645849226,0.02557107910811901
1684131142204307200,8.23930712890625,0.03849836522042751,0.010741174244880676,0.05109364289939403
1684131142214279200,8.249279052734375,0.03981295495033264,0.013775573504716157,0.06799392429590224
1684131142224251400,8.25925146484375,0.06428279481828213,0.04215747224986553,0.08898936605155468
1684131142234223000,8.26922314453125,0.05988777472972869,0.06684899204447865,0.1049304470270872
1684131142244195300,8.2791953125,0.05078384629786014,0.06958981518521905,0.118228320017457
1684131142254168300,8.289168212890624,0.0616693974494934,0.0750442811988294,0.12506605708301066
1684131142264140000,8.29914013671875,0.06346504869461059,0.05840849595740437,0.11849486199915409
1684131142274112300,8.3091123046875,0.06618249095976353,0.020489245799183844,0.10795710137188434
1684131142284084000,8.319083984375,0.0747147569835186,-0.024334815311431883,0.0961246247589588
1684131142294057200,8.32905712890625,0.07837035688161849,-0.04439034586846828,0.07656593780815601
1684131142304029200,8.339029296875,0.08817863419055938,-0.0334857977554202,0.060898413076996796
1684131142314001200,8.349001220703125,0.07370704124569892,0.005699819076806306,0.04948913031220436
1684131142323973000,8.35897314453125,0.05856909334659576,0.0686760613411665,0.04776888239085674
1684131142333946000,8.368946044921875,0.03918342487514019,0.11304477989971637,0.053418870976567265
1684131142343920600,8.378920654296875,0.016205869391560553,0.11881079608052968,0.061679918843507764
1684131142353892900,8.388892822265625,0.004968436062335968,0.09387772261500359,0.062142860180139536
1684131142363864600,8.398864501953126,-0.0033498949497938156,0.044436084706336254,0.036866964626312254
1684131142373836800,8.4088369140625,-0.0016495207726955413,-0.008148235142230988,-0.0019587328523397443
1684131142383809800,8.418809814453125,-0.009884265154600143,-0.05153992536216974,-0.028036007916927334
1684131142393781800,8.42878173828125,-0.013614099332690238,-0.05840367365181446,-0.05984101297855377
1684131142403753700,8.438753662109375,-0.005936404311656951,-0.04046528137922287,-0.06698503951430321
1684131142413725700,8.4487255859375,-0.0013338789522647856,-0.02824117510020733,-0.06992869175076484
1684131142423698700,8.45869873046875,-0.025946926683187484,-0.013335136260837316,-0.0732376701682806
1684131142433670700,8.468670654296876,-0.006872223857045173,-0.006461597229540348,-0.057496495679020876
1684131142443642600,8.478642578125,-0.007881108638644219,-0.0331853535041213,-0.05111819281876087
1684131142453614600,8.488614501953125,-0.009582067337632179,-0.056374067520350214,-0.052956514161825174
1684131142463586800,8.4985869140625,-0.0055716626524925225,-0.06740472623109817,-0.057767129313945766
1684131142473559600,8.5085595703125,-0.021175474497675893,-0.06981660967841744,-0.06980535763204097
1684131142483531800,8.51853173828125,-0.013847908088564872,-0.05432809477597475,-0.08584230019748211
1684131142493503700,8.528503662109374,-0.011227496457099913,-0.040523002915829415,-0.08503156833648681
1684131142503475700,8.538475830078125,-0.019101006311178205,-0.030460458584874867,-0.07968494661152363
1684131142513448700,8.54844873046875,-0.025360651227831838,-0.019696487986296415,-0.08758183734118938
1684131142523421000,8.5584208984375,-0.014905308187007903,-0.00815203453451395,-0.08974807546436786
1684131142533392600,8.568392578125,-0.005995441022515297,-0.005109890359640121,-0.06992343105375766
1684131142543364900,8.57836474609375,-0.014988310295343399,-0.0011352876402437686,-0.05110708690285683
1684131142553336600,8.588336669921874,-0.005624854144454002,0.008984539835900068,-0.03947100964486599
1684131142563309600,8.5983095703125,-0.0055956280499696726,0.000014759177714586257,-0.038033670318126676
1684131142573281800,8.60828173828125,-0.010883213064074516,-0.0065676879525184625,-0.04556815747618675
1684131142583253500,8.61825341796875,-0.01055588080585003,-0.0046641924187541,-0.05429156215786934
1684131142593225700,8.628225830078126,-0.0017886369824409484,0.005929974570870399,-0.051556584236025806
1684131142603198700,8.63819873046875,0.005378185907006263,0.014705547831207514,-0.03374912486672401
1684131142613170700,8.648170654296875,0.008732172510027884,0.03825608089715242,0.0029518355429172514
1684131142623142700,8.658142578125,0.027494156125187873,0.056634033630788325,0.01872048256099224
1684131142633115000,8.668114990234375,0.04700257419347763,0.08727671691477298,0.028498364731669425
1684131142643086600,8.678086669921875,0.02948445315957069,0.1038894135415554,0.021592238605022428
1684131142653059800,8.688059814453124,0.03550502862334251,0.1112188796468079,0.024374562799930572
1684131142663031800,8.69803173828125,0.03439619059860706,0.10889978904947638,0.04022328931689262
1684131142673003800,8.708003662109375,0.033358079722523686,0.09179507112205028,0.04062836298644543
1684131142682975700,8.717975830078124,0.04007072910368442,0.0691499624632299,0.039296237599849695
1684131142692948700,8.72794873046875,0.02380465395748615,0.03183759215697646,0.049614802518486975
1684131142702920700,8.737920654296875,0.02107669029831886,-0.043363487038761375,0.06937514952123165
1684131142712892700,8.747892578125,0.04625555521845817,-0.10481412717103958,0.07338496968448162
1684131142722864600,8.75786474609375,0.08043839532732963,-0.15608634150773285,0.06804302413463592
1684131142732836600,8.767836669921875,0.09949965415000915,-0.15639745328351853,0.06474924328625202
1684131142742809900,8.777809814453125,0.11414017392098903,-0.10890694944262504,0.06401917544603347
1684131142752781600,8.787781494140624,0.10982055715620517,-0.048286768785119054,0.05709960531592369
1684131142762753800,8.79775390625,0.11307751312553882,0.0147682378038764,0.052477206212282176
1684131142772725800,8.807725830078125,0.10424304928481579,0.0497824141703546,0.06321838045716285
1684131142782697700,8.81769775390625,0.08704407720267772,0.053330754301697016,0.08710954365432262
1684131142792670700,8.827670654296876,0.06418751775026321,0.02621902162283659,0.10347849465310573
1684131142802643000,8.837642822265625,0.051935354420542715,-0.02113075857311487,0.10018705189228057
1684131142812614700,8.84761474609375,0.03958089976012707,-0.06611629385575651,0.07720189762413501
1684131142822587000,8.8575869140625,0.02647591899335384,-0.07463380070179701,0.051499885612726205
1684131142832559900,8.867559814453125,0.0309568637996912,-0.05314926025494933,0.03432604797184467
1684131142842531600,8.877531494140625,0.026453707161545752,-0.01592076883986592,0.010604396122694015
1684131142852503800,8.88750390625,0.0018219547301530836,0.02461158642619848,0.00004793079495429992
1684131142862475500,8.8974755859375,0.0074848027974367135,0.03961129489839077,-0.016867548170685767
1684131142872447700,8.90744775390625,0.0069826984941959375,0.030931729358434676,-0.04057341792881489
1684131142882420700,8.917420654296874,0.0026151509344577786,0.005438976183533668,-0.04730068035721779
1684131142892392700,8.927392822265626,-0.004299743020534515,-0.02071267929151654,-0.0506809704452753
1684131142902364700,8.93736474609375,-0.0050695583492517465,-0.04500175576508045,-0.0456312858402729
1684131142912337000,8.9473369140625,-0.021026421415805817,-0.04566109645664692,-0.04008709571659565
1684131142922309600,8.9573095703125,-0.023838556227087974,-0.03537818737328052,-0.040351299610733984
1684131142932281900,8.96728173828125,-0.020004677152633665,-0.009610416649281977,-0.03636602936685085
1684131142942253800,8.97725390625,-0.006927168914675712,0.019214695818722247,-0.03841653215587139
1684131142952225800,8.987225830078126,-0.01013794765472412,0.0589595539689064,-0.03745265555977821
1684131142962197800,8.99719775390625,-0.018764321702718734,0.07793138094246387,-0.03826689455211162
1684131142972170800,9.007170654296875,-0.027248656931519507,0.07382862179875374,-0.02946925559043884
1684131142982142700,9.017142822265624,-0.030724808609485624,0.05902633559480309,-0.014947393763065336
1684131142992114700,9.02711474609375,-0.026135142731666564,0.023077800987660883,-0.011709727016091347
1684131143002086700,9.037086669921875,-0.01303892979323864,0.010902794547379016,-0.005941665008664131
1684131143012058600,9.04705859375,0.020326164191961288,0.025843174047768116,0.0013134206861257552
1684131143022032000,9.057031982421876,0.03793196350932121,0.043402796135842796,0.012565467062592506
1684131143032003600,9.067003662109375,0.03406944286227226,0.051986207824945445,0.02065408097207546
1684131143041975800,9.076975830078124,0.02336158636510372,0.0660081573061645,0.026278935116529463
1684131143051947800,9.08694775390625,0.025612580162286756,0.06868234495148062,0.01708966648876667
1684131143061919700,9.096919677734375,0.02564648243188858,0.04227642245441675,0.0015834697991609571
1684131143071892700,9.106892822265625,0.032737901997566224,0.021228665989637373,-0.004034954604506492
1684131143081865000,9.116864990234374,0.02881225298643112,-0.002528641694784164,-0.010216858109831809
1684131143091836700,9.126836669921875,0.015231471401453017,-0.014732874229550361,-0.007880524116754531
1684131143101809000,9.136808837890625,0.0076899699807167045,-0.023658669615536927,-0.007714519900083541
1684131143111782000,9.146781982421874,0.022729718202352523,-0.033054420600831504,0.01821545564830303
1684131143121753600,9.156753662109375,0.03207388513088226,-0.023967443303763866,0.02301262679696083
1684131143131725800,9.166725830078125,0.03518061897456646,-0.024335692094266413,0.024310849913954734
1684131143141697500,9.176697509765624,0.04616436980366707,-0.03422857894673943,0.027837270474433896
1684131143151669800,9.186669677734375,0.03436579546034336,-0.026282442247867584,0.01736146916747093
1684131143161642800,9.196642822265625,0.02613222012221813,-0.04053104009181261,0.021740122643113136
1684131143171614700,9.20661474609375,0.03483750462532043,-0.07407806651517748,0.011807926693558693
1684131143181586700,9.216586669921876,0.059070028606057166,-0.1275173957578838,-0.03247369810342789
1684131143191559000,9.226558837890625,0.06797580411732196,-0.12446063853576779,-0.02700023512840271
1684131143201530600,9.236530517578124,0.0780085378319025,-0.08401786124929785,-0.005440145227313041
1684131143211503900,9.24650390625,0.08184417047202587,-0.017273060231655837,0.008116670960187911
1684131143221475600,9.2564755859375,0.051611529293656346,0.06281111483052372,0.048374447068572045
1684131143231447800,9.26644775390625,0.03019990795254707,0.11919614213630557,0.1013274540990591
1684131143241419800,9.276419677734374,0.020216858598589897,0.14328282790556549,0.11290274108052253
1684131143251392500,9.286392578125,0.026197686573863028,0.10924743344336747,0.1069739355534315
1684131143261364700,9.29636474609375,0.024805355432629583,0.04276566727608442,0.08602700911462306
1684131143271336700,9.306336669921874,0.02957914570569992,-0.03334244376197457,0.03376315339207649
1684131143281308700,9.31630859375,0.03868015152812004,-0.06293079568743705,-0.0037228199154138563
1684131143291280600,9.32628076171875,0.04665887532234192,-0.06863251446038485,-0.025426702201366422
1684131143301254000,9.33625390625,0.03505143963694572,-0.0463468867637217,-0.02505903793275356
1684131143311225600,9.3462255859375,0.017198387560248374,-0.022381927677989005,-0.009846271231770514
1684131143321197800,9.35619775390625,0.004632335975766182,0.019293460143357515,-0.01092705220580101
1684131143331169500,9.36616943359375,-0.006336217284202575,0.04404606247544288,-0.01667348690330982
1684131143341139000,9.376138916015625,-0.0091454294860363,0.04325461983680725,-0.031385318344831464
1684131143351112000,9.38611181640625,-0.012172083830833434,0.018068740653991697,-0.034515433064103124
1684131143361083600,9.396083740234374,-0.0210837045609951,0.010095277556777,-0.03664133917689323
1684131143371055900,9.406055908203125,-0.018598317486047743,0.013792378509044646,-0.04789981529414653
1684131143381027600,9.416027587890625,-0.028396657922863958,0.027685294783115384,-0.04921148241460323
1684131143390999800,9.425999755859374,-0.024762685334682462,0.02950900307893753,-0.04870002576112747
1684131143400972800,9.435972900390626,-0.02461947747170925,0.015303221463412045,-0.03742050685584545
1684131143410944800,9.44594482421875,-0.01191606324315071,-0.005904693999141454,-0.03406944286227226
1684131143420916700,9.455916748046874,-0.011872808623313903,-0.03310805048421025,-0.018681904116272924
1684131143430889000,9.465888916015626,-0.00011573533415794372,-0.03996083898842334,-0.02029343096613884
1684131143440860700,9.475860595703125,0.0034451720178127285,-0.04927358786538243,-0.009102174866199493
1684131143450834000,9.485833984375,0.0070125091105699535,-0.05112359964624047,-0.017448562929034232
1684131143460806000,9.495805908203126,0.02104804872572422,-0.03796937291026115,-0.03645663025975227
1684131143470777900,9.50577783203125,0.02608604289293289,-0.037678865531086916,-0.04560790496468544
1684131143480749800,9.515749755859375,0.03286766585707664,-0.04021700570657849,-0.038034254840016365
1684131143490722800,9.525722900390624,0.038747371545434,-0.02850172573253512,-0.01467325299680233
1684131143500694800,9.53569482421875,0.03533610179722309,-0.00835807850062847,0.008736848685145378
1684131143510666800,9.545666748046875,0.03431552657783031,0.0050064299851655955,0.033141222101449964
1684131143520638700,9.555638671875,0.0360761065095663,0.018382628908753394,0.06443009433448314
1684131143530610700,9.565610595703125,0.04624386478066444,0.02618731131032109,0.07924480162858963
1684131143540583000,9.5755830078125,0.049907647985219954,0.022236381727457045,0.08141454688310623
1684131143550555600,9.5855556640625,0.060872109591960905,0.015380524483323096,0.05769815573096275
1684131143560528000,9.59552783203125,0.06998422133028506,0.008764759605377911,0.03942074076235294
1684131143570499800,9.605499755859375,0.0744616590052843,0.005577069479972124,0.03715454939603805
1684131143580471800,9.615471923828125,0.049803018566966055,0.010844050097465514,0.02407879472374916
1684131143590444800,9.62544482421875,0.04068447708785534,0.021362083110958337,0.01679039128124714
1684131143600417000,9.6354169921875,0.03903554083704948,0.014464870943129062,0.0063397244155406944
1684131143610388700,9.645388671875,0.0385334365338087,-0.0018950199663639068,0.011066168415546416
1684131143620361000,9.65536083984375,0.015853402692079542,-0.01838233664780855,0.025090602114796638
1684131143630332700,9.665332763671875,0.015542437046766281,-0.025905425629019735,0.03783376383185386
1684131143640305700,9.6753056640625,0.0008107318609952926,0.005036532862484455,0.03172667912840843
1684131143650278000,9.68527783203125,0.019792495706677436,0.031871640557050704,0.021339140626788138
1684131143660249600,9.69524951171875,0.024491467177867886,0.050168783139437435,0.013561492362618445
1684131143670221800,9.705221923828125,0.01080722521841526,0.04925049925073981,0.012934884896874428
1684131143680193800,9.71519384765625,0.007634440401196479,0.04768091184645891,0.015662848556041716
1684131143690166800,9.725166748046876,0.02076397108733654,0.024920944636315105,0.00011690437793731689
1684131143700138800,9.735138671875,0.02779752298593521,0.003620966976135969,0.004003974944353103
1684131143710111000,9.745111083984375,0.021488778230547904,-0.02166501158028841,0.0028688334345817563
1684131143720082700,9.755082763671876,0.0024678514182567596,-0.0496311691313982,-0.013152327039837836
1684131143730055000,9.765054931640625,0.0067787003546953195,-0.05821516534239053,-0.01671615700125694
1684131143740028000,9.77502783203125,0.008844985234737396,-0.048238253468275066,-0.019207389295101164
1684131143749999900,9.784999755859374,0.014749240842461585,-0.03148293350040912,-0.018920389047265052
1684131143759971800,9.794971923828125,0.025246669459342955,0.0029459903240203855,-0.007369651985168457
1684131143769943800,9.80494384765625,0.023218963024020194,0.02483969609364867,-0.008203180199861526
1684131143779915800,9.814915771484374,0.009690788409113884,0.030324557245522736,-0.014990648382902145
1684131143789888800,9.824888671875,0.007226444122195244,0.018098259009420872,-0.008401917642354964
1684131143799860700,9.83486083984375,-0.007117723050713539,-0.006116875445097684,-0.015517887127399444
1684131143809832700,9.844832763671874,-0.009505494970083236,-0.03164367702007294,-0.034573300731182095
1684131143819805000,9.854804931640626,-0.008831541231274604,-0.03465206505581736,-0.04679799153208732
1684131143829776600,9.864776611328125,-0.0020838205367326736,-0.025772446899116036,-0.04798340192437172
1684131143839750000,9.87475,0.002148117944598198,-0.013796470162272452,-0.04344517397284507
1684131143849721900,9.884721923828126,0.0065986676126718515,0.006347030939161777,-0.0423895274400711
1684131143859693800,9.89469384765625,0.007599953609704971,0.006006839199364185,-0.02543605455160141
1684131143869665800,9.904665771484375,0.01245499242544174,-0.0006026420682668685,-0.021665303841233254
1684131143879637800,9.9146376953125,0.004101005578041076,-0.01338423609957099,-0.012431611549854277
1684131143889609700,9.924609619140625,0.01582651468515396,-0.03516249879598617,-0.007147533667087555
1684131143899583000,9.9345830078125,0.018358663511276244,-0.03427285647988319,0.008757306951284408
1684131143909554700,9.9445546875,0.019166472762823104,-0.03296411196887493,0.029973697981238362
1684131143919527000,9.95452685546875,0.02823006918430328,-0.005205898080021143,0.030517887860536573
1684131143929499000,9.964498779296875,0.030100539231300353,0.01160977377295494,0.012456161469221114
1684131143939470800,9.974470947265624,0.03959200567603111,0.025045301668345926,0.0216021754771471
1684131143949443800,9.98444384765625,0.043459202498197555,0.01476926071718335,0.01166471883058548
1684131143959415800,9.994415771484375,0.04366378515958786,0.014055705620348453,0.011357844838500022
1684131143969387800,10.0043876953125,0.04068389256596565,0.014093115021288394,0.01700783342421055
1684131143979359700,10.01435986328125,0.027882278659939766,0.020829437538981435,0.02569207513928413
1684131143989331700,10.024331787109375,0.024766776987910268,0.04243234366849065,0.0310264219045639
1684131143999304700,10.0343046875,0.01067863040268421,0.05125087928771972,0.02790215240418911
1684131144009277000,10.04427685546875,0.0058732759475708,0.04918620184287428,0.012367314141988753
1684131144019248600,10.05424853515625,0.0013923311412334441,0.03835851835831999,0.005637713626027107
1684131144029220900,10.064220947265625,-0.005596212571859359,0.03451616371646523,0.002557283267378807
1684131144039192800,10.07419287109375,-0.001650105294585228,0.030123627845942972,-0.01164250699877739
1684131144049165800,10.084165771484376,0.0012929624199867248,0.027799714943021536,-0.003713467565178871
1684131144059137800,10.0941376953125,-0.009071195206046104,0.022998890532553194,-0.00895545987188816
1684131144069110000,10.104110107421874,0.005546528211235999,0.019821721801161766,0.003379705566167831
1684131144079081700,10.114081787109376,0.006438508614897727,0.015049392832815646,-0.0018599486529827117
1684131144089054000,10.124053955078125,0.019788988575339315,-0.0035828269228339194,0.0002782324194908142
1684131144099027000,10.13402685546875,0.024157120656967162,-0.004713438387960196,-0.00036415713727474213
1684131144108998700,10.14399853515625,0.04514671719372272,-0.0223015559181571,0.0037543840974569318
1684131144118971000,10.153970947265625,0.05002104523181915,-0.03848039117231965,0.006707388684153557
1684131144128942800,10.16394287109375,0.0459580335766077,-0.0363312503144145,0.016701543954014776
1684131144138914800,10.173914794921876,0.040514381217956544,-0.039611148767918346,0.019631752187013626
1684131144148887000,10.183886962890625,0.042375498914718625,-0.020084318260103463,0.025208675536513327
1684131144158858800,10.193858642578125,0.02627075181007385,-0.019879735598713158,0.04031272116601467
1684131144168831000,10.2038310546875,0.028870120653510092,-0.023254618859291077,0.03724573481082916
1684131144178804000,10.213803955078125,0.049101007777452466,-0.029885142914950844,0.034604280391335486
1684131144188775700,10.223775634765625,0.056443187233805654,-0.0607316782079637,0.025626608687639236
1684131144198748000,10.233747802734374,0.04310381318926811,-0.06189458450749516,0.006430325308442115
1684131144208719600,10.2437197265625,0.040617841592431064,-0.044964346364140505,0.011336217528581619
1684131144218691800,10.25369189453125,0.03610591712594032,-0.022307985658943652,0.008974164572358131
1684131144228663800,10.263663818359374,0.024535306319594382,-0.008048720290511846,0.007566635861992835
1684131144238636800,10.27363671875,0.033411855736374854,-0.00902282601967454,0.007392448338866233
1684131144248608800,10.28360888671875,0.04277180475592613,-0.009447042781114579,0.007898059773445128
1684131144258580700,10.293580810546874,0.04343231449127197,-0.0115777711994946,0.010126257216930388
1684131144268552700,10.303552734375,0.03744505677521229,-0.008403378947079182,0.014834581038355827
1684131144278525000,10.31352490234375,0.020897826600074765,0.000006722001731395721,0.009384498938918113
1684131144288497700,10.32349755859375,0.0044172319203615185,0.019444412921369076,0.0077495912134647365
1684131144298470000,10.333469970703124,0.004095744881033897,0.031236265262961384,0.007269114220142364
1684131144308441900,10.34344189453125,-0.0013759645283222197,0.01459872645586729,0.00016308160722255705
1684131144318413800,10.353413818359375,-0.008732172510027884,-0.0003045359045267105,-0.008110825741291046
1684131144328385800,10.3633857421875,-0.012017185530066489,-0.008923165037482977,-0.027480712121725082
1684131144338357800,10.373357666015625,-0.01272211892902851,-0.0008278291262686252,-0.03593465221226215
1684131144348334000,10.383333984375,-0.017041151171922682,0.019962007054686544,-0.040380525705218315
1684131144358306000,10.39330615234375,-0.02554009944796562,0.04338672178387642,-0.05145195481777191
1684131144368278000,10.403278076171874,-0.03609714929759502,0.06756108583658933,-0.056899698829650874
1684131144378250200,10.413250244140626,-0.025911855369806287,0.06691767336651683,-0.058605918225646016
1684131144388222000,10.423221923828125,-0.0408341146916151,0.057228784653544425,-0.06359890420734882
1684131144398195000,10.43319482421875,-0.03220774064362049,0.02925502831786871,-0.05049216987490654
1684131144408167200,10.443167236328126,-0.0330219796359539,-0.0025933774940669536,-0.043974166283011436
1684131144418139000,10.453138916015625,-0.023076924204826352,-0.022644670267403126,-0.02337035419344902
1684131144428111000,10.463111083984375,-0.016418050837516785,-0.02065393484160304,-0.022957681739330292
1684131144438082800,10.473082763671876,-0.005074234524369239,-0.00032440964877605437,-0.0058820437759161
1684131144448055000,10.483054931640625,0.008222469422221183,0.01568447586596012,-0.001664133819937706
1684131144458028000,10.493028076171875,0.015581600013375281,0.015252806450426577,0.010675123271346091
1684131144468000000,10.503,0.050509705531597136,-0.002741846054047346,0.013685995525121689
1684131144477972000,10.512971923828125,0.061849430191516876,-0.03743555829450488,0.020752865171432495
1684131144487944200,10.522944091796875,0.07967676330506801,-0.06363105291128159,0.037837270963191984
1684131144497916000,10.532916015625,0.07769172696769237,-0.08243278401494025,0.0559223782300949
1684131144507889200,10.54288916015625,0.0863566794604063,-0.07254968790411949,0.05684241568446159
1684131144517861000,10.552861083984375,0.08590718212723732,-0.05307984828054905,0.05596504832804203
1684131144527833000,10.5628330078125,0.08361760988533497,-0.01199409691542387,0.06825052940547466
1684131144537805000,10.57280517578125,0.0780213973134756,0.009417524425685405,0.05955518177449703
1684131144547777000,10.582777099609375,0.07184124737381935,0.01866992141753435,0.06257482185661792
1684131144557749000,10.5927490234375,0.06299450857341289,0.010666793834418058,0.06429799238741397
1684131144567722000,10.602721923828126,0.040485739645361896,-0.01190539571866393,0.047827919101715084
1684131144577694000,10.61269384765625,0.026335049217939374,-0.011465396866202354,0.0205652336448431
1684131144587666000,10.622666015625,0.011553659671545029,-0.012208616448938846,-0.0007312368839979171
1684131144597638100,10.63263818359375,-0.009710662153363227,0.005103752879798412,-0.02752864291667938
1684131144607610000,10.642610107421875,-0.004382160606980323,0.02519391635879874,-0.04017711208760738
1684131144617582000,10.65258203125,0.009345920494198799,0.03273863264992833,-0.05315817421376705
1684131144627555000,10.66255517578125,0.07009060431420802,0.016553952176868916,-0.053280339288711544
1684131144637527000,10.672527099609376,0.1517646789163351,-0.0011291501604020595,-0.012781155639886856
1684131144647499000,10.6824990234375,0.09270166457295417,-0.002932546320557594,0.04665127653777599
1684131144657471000,10.692470947265624,-0.05165419939160347,0.05042626503184437,0.08720014454722404
1684131144667443000,10.70244287109375,-0.1153875436335802,0.1140738306865096,0.0675865125387907
1684131144677416200,10.712416259765625,-0.02667465643584728,0.09686901338547467,0.04543605552911758
1684131144687388000,10.722387939453125,0.037442134165763856,-0.0021297055050730706,0.05705576617419719
1684131144697360100,10.732360107421876,-0.01449848095178604,-0.09246668677330017,0.027158056038618088
1684131144707332000,10.74233203125,-0.05163140303790569,-0.10592574167475104,-0.008963058656454085
1684131144717304000,10.752303955078125,-0.032384266254305835,-0.06790566149055957,-0.037792847299575806
1684131144727276000,10.762276123046876,-0.033389059382677076,-0.03282967193424702,-0.07106091065108776
1684131144737249000,10.7722490234375,-0.007537994289398193,0.01930909610390663,-0.0964998878121376
1684131144747221000,10.782220947265625,0.007519289588928222,0.06408434963673353,-0.07407353647053241
1684131144757193200,10.792193115234374,0.016874562433362005,0.07464695244431495,-0.026136896297335625
1684131144767165000,10.8021650390625,0.015221534529328345,0.05598769855126738,-0.0016863456517457961
1684131144777137200,10.81213720703125,-0.0015197569131851195,0.047439358175545926,0.014946224719285963
1684131144787109000,10.822109130859374,-0.005694996771216392,0.029147476290166376,0.0390653514534235
1684131144797081900,10.832081787109376,0.009813538005948067,-0.008789017263799905,0.03248305045366287
1684131144807054000,10.84205419921875,0.01291384210884571,-0.04513078897222876,0.024172318226099013
1684131144817026000,10.852026123046874,0.02639116331934929,-0.07320990537852048,0.0023556232154369355
1684131144826998000,10.861998046875,0.04898118079006672,-0.07531696066036819,-0.008328267884254455
1684131144836971000,10.871970947265625,0.03419979124367237,-0.05688172478154301,-0.008432897302508353
1684131144846944000,10.881944091796875,0.009141337832808493,-0.017704437386244533,-0.007927285867929458
1684131144856916000,10.891916015625,-0.0032177930027246474,0.011098317119479178,-0.022857728496193885
1684131144866888000,10.901887939453125,-0.0071568860173225396,0.031905542826652526,-0.027804537248611448
1684131144876860200,10.911860107421875,0.005167758026719093,0.037763621205091476,-0.03052665568888187
1684131144886831900,10.921831787109374,0.019213819035887716,0.017505846074223518,-0.031031682601571083
1684131144896804000,10.93180419921875,0.0110451256275177,-0.0016001286730170248,-0.025428455767035483
1684131144906777000,10.941777099609375,0.006668810239434242,-0.013717413576692343,-0.02929506806731224
1684131144916749000,10.9517490234375,0.0033685996502637863,-0.02382306639701128,-0.026400515669584273
1684131144926721000,10.961720947265626,0.0038648587346076964,-0.015958324371278285,-0.013359832310676573
1684131144936693000,10.97169287109375,-0.0032610476225614546,-0.0034157997928559777,-0.0005313303977251052
1684131144946665000,10.9816650390625,0.012556699234247208,-0.0024298574954271317,0.010177695143222809
1684131144956637200,10.99163720703125,0.020035656812787055,-0.00279459915459156,-0.006236848562955856
1684131144966610000,11.00160986328125,0.02877951976060867,0.0018910744436085223,0.0017494740158319473
1684131144976582100,11.01158203125,0.032068039911985396,0.0123838268853724,0.010917115333676338
1684131144986554000,11.02155419921875,0.03364215736091137,0.001830138036608696,0.023840309792757034
1684131144996526000,11.031526123046875,0.02502513566315174,-0.007660013233870267,0.02164192296564579
1684131145006498000,11.041498046875,0.036757074511051174,-0.019955723444372415,0.023493688312172887
1684131145016470000,11.051469970703126,0.05214636682271957,-0.030855010860413312,0.028508301603794098
1684131145026443000,11.061443115234376,0.06110825643539428,-0.041496816384047265,0.029139585244655607
1684131145036415000,11.0714150390625,0.06309446181654929,-0.044079672484099865,0.021309330010414122
1684131145046387000,11.081386962890624,0.06882979059815407,-0.04291983492448926,0.014856792870163917
1684131145056359200,11.091359130859376,0.06960895827710628,-0.037920857593417165,0.008818681749701499
1684131145066331100,11.1013310546875,0.048509471625089645,-0.02789090035781264,0.0018424129962921142
1684131145076303000,11.11130322265625,0.03737549867033958,-0.022755729426443574,0.002645546072721481
1684131145086276000,11.121276123046876,0.03678396251797676,-0.008849223018437623,0.0023228899896144866
1684131145096248000,11.131248046875,0.016468904241919515,0.010436346079409122,-0.009203297153115271
1684131145106220000,11.141219970703125,0.004815875849127769,0.022041297546774148,-0.010313888743519782
1684131145116192000,11.15119189453125,-0.0017179098337888716,0.023862813885509968,-0.01227028350830078
1684131145126164000,11.1611640625,0.0009001637101173401,0.023361440234631298,-0.01808569178879261
1684131145136136000,11.171135986328125,0.003029576954245567,0.012085136199742556,-0.02125496947467327
1684131145146109200,11.181109130859374,0.008104396000504494,0.0016509820774197577,-0.01032967083454132
1684131145156081000,11.191080810546875,0.010724807631969452,-0.018527298076450822,-0.010340776750445365
1684131145166053000,11.20105322265625,0.022767127603292463,-0.019075871869921684,-0.006904957082867622
1684131145176025000,11.211025146484374,0.013121931901574135,-0.01775295270308852,0.0011088380247354507
1684131145185997000,11.2209970703125,0.018097382226586342,-0.0044556642346084115,-0.0005652326673269272
1684131145195969000,11.230968994140625,0.031417467048764226,0.019569500605762003,-0.012449147206544876
1684131145205942300,11.2409423828125,0.032009587723016736,0.031639439236372705,0.00036298809349536896
1684131145215914000,11.2509140625,0.023076339682936667,0.045322658282518385,0.003310147461295128
1684131145225886200,11.26088623046875,0.015149053815007208,0.027658406776189803,0.004453472277522087
1684131145235858000,11.27085791015625,0.010730652850866317,0.0016746552139520643,0.01348375095129013
1684131145245830100,11.280830078125,0.01651625051498413,-0.011041764626652002,0.007693477112054824
1684131145255802000,11.290802001953125,0.00386427421271801,-0.016187456952035426,-0.010424363380670546
1684131145265774800,11.30077490234375,-0.01831482436954975,-0.0035977322310209274,-0.007194295418262481
1684131145275747000,11.3107470703125,-0.05794482396841049,0.01084098135754466,-0.005875614035129547
1684131145285719000,11.320718994140625,-0.05075228211581707,0.027755583540350195,-0.013851999741792678
1684131145295691000,11.33069091796875,-0.0005143792629241943,0.028752193362265824,-0.006208206990361213
1684131145305663200,11.340663330078126,0.02540975106656551,0.021341478714346884,-0.004053074783086776
1684131145315635000,11.350635009765625,0.035920623686909674,-0.007950374482572077,0.0020657003581523894
1684131145325608000,11.36060791015625,0.035246085426211354,-0.026195348486304282,0.002928454667329788
1684131145335580200,11.370580078125,0.034036709636449815,-0.02115735431909561,0.007000818672776222
1684131145345549000,11.380549072265625,0.015098200410604477,-0.01585924791097641,0.022229951986670493
1684131145355521300,11.390521240234374,0.03490530916452408,-0.013483166429400444,0.0282335763156414
1684131145365493000,11.400492919921875,0.043932080706954,-0.005303513235598802,0.03328676805198193
1684131145375465200,11.41046533203125,0.04090191923081875,-0.007534779419004917,0.03776479024887085
1684131145385438200,11.420438232421875,0.05228139137923717,-0.012443301987648009,0.02558160050213337
1684131145395410200,11.43041015625,0.04778115735054016,-0.03041457361653447,0.016709142738580703
1684131145405382100,11.440382080078125,0.05025543850958347,-0.03481222405359149,0.012530980271100996
1684131145415354000,11.45035400390625,0.03731295482814312,-0.044010845031589266,0.013397241711616515
1684131145425326000,11.460326171875,0.02018061824142933,-0.03959507441595197,-0.0011953472644090652
1684131145435298300,11.47029833984375,0.029802433067560193,-0.053472939251363275,-0.001861117696762085
1684131145445271000,11.48027099609375,0.03618541210293769,-0.04573430782333016,-0.009369301369786262
1684131145455243000,11.490242919921876,0.03572422433197498,-0.033038346248865126,0.0001344400346279144
1684131145465215200,11.50021533203125,0.02323474511504173,-0.018263678704202174,-0.006606850919127464
1684131145475187000,11.51018701171875,0.010557634371519088,-0.00980243209004402,-0.011970423778891563
1684131145485159200,11.5201591796875,-0.006430909830331802,-0.010387538501620292,-0.01444704302549362
1684131145495131100,11.530131103515625,-0.006860533419251442,-0.0005127718277275562,-0.021197686329483986
1684131145505104100,11.540104248046875,-0.008602993172407149,-0.005714724384993314,-0.021997312274575232
1684131145515076000,11.550076171875,-0.010712532672286033,0.0023319500789046287,-0.027992753297090528
1684131145525048000,11.560048095703126,-0.005381108516454697,0.016678016947954892,-0.02375730768442154
1684131145535020000,11.57002001953125,-0.010550035586953162,0.026730916667729615,-0.023268647384643553
1684131145544992300,11.5799921875,-0.0015144962161779403,0.04384776342436671,-0.015665186643600462
1684131145554964000,11.5899638671875,0.007153963407874107,0.05884323411285877,-0.00699263536632061
1684131145564936200,11.599936279296875,0.004697217905521392,0.06347615461051463,0.004931026661396026
1684131145574909200,11.6099091796875,0.0018868366599082945,0.05636135416924953,0.023455109867453573
1684131145584881200,11.619881103515626,0.009399111986160278,0.04715381923243403,0.02694529007077217
1684131145594853000,11.62985302734375,0.006125789403915405,0.03393850995898247,0.03082476185262203
1684131145604825000,11.6398251953125,0.014734043273329734,0.023274200342595575,0.026858196309208868
1684131145614797000,11.649797119140626,0.014348843348026274,0.008173515713959932,0.021167291191220284
1684131145624769300,11.659769287109375,0.016927753925323485,0.002842968340963125,0.005443652358651161
1684131145634742000,11.669741943359375,0.022022446715831756,-0.002530541390925646,0.008837970972061156
1684131145644714200,11.67971435546875,0.035865094107389445,-0.012712766578793526,-0.004030278429389
1684131145654686200,11.689686279296875,0.04171498917937279,-0.012454407903552055,-0.0037210663497447964
1684131145664658200,11.699658203125,0.033410102170705794,-0.016323358291387556,-0.021010639324784277
1684131145674630100,11.709630126953124,0.025358313140273092,-0.013080430847406387,-0.016246201401948927
1684131145684602000,11.71960205078125,0.025409166544675826,-0.01698240672200918,-0.009696049106121063
1684131145694575000,11.7295751953125,0.027396540969610212,-0.0116932142727077,-0.01634498560130596
1684131145704547000,11.739547119140624,0.020488076755404473,-0.011680939313024281,-0.007832008799910545
1684131145714519000,11.74951904296875,0.010875029757618903,-0.000831190127134323,-0.001558335357904434
1684131145724491000,11.759490966796875,0.0047428106129169464,-0.0021317513316869733,0.006543138033151626
1684131145734463000,11.769462890625,0.0013917466193437576,-0.015285247415304183,0.005505611678957939
1684131145744435000,11.77943505859375,0.014091069194674491,-0.02311667169332504,0.00201426243185997
1684131145754408200,11.789408203125,0.030491584375500678,-0.04235080286487937,0.010613748472929
1684131145764380000,11.7993798828125,0.04905249246060848,-0.04898614922612905,0.019741642302274702
1684131145774352100,11.80935205078125,0.07049509346187115,-0.050623248908668754,0.028881811091303822
1684131145784324000,11.819323974609375,0.07302139706909656,-0.05168664035648107,0.03126549135744572
1684131145794296000,11.829296142578125,0.06600128917396068,-0.0394528894662857,0.028197335958480833
1684131145804268000,11.83926806640625,0.03995733185708523,-0.033153935452550645,0.014829320341348647
1684131145814240000,11.849239990234375,0.02232639809846878,-0.02223316685706377,0.012486556607484817
1684131145824213000,11.859212890625,0.016681670209765433,0.0022957097217440603,0.014676760128140448
1684131145834185200,11.869185302734374,0.02702712313532829,0.018863105902075766,0.005938742399215698
1684131145844157000,11.879156982421875,0.03022562691569328,0.029914515139907595,0.012535071924328803
1684131145854129200,11.889129150390625,0.02687982361912727,0.011007131704688072,0.006624971097707748
1684131145864101000,11.89910107421875,0.018912790262699125,0.004930734400451183,-0.00026128128468990325
1684131145874073000,11.909072998046875,0.01896656627655029,-0.011223697064816952,-0.005747603741288185
1684131145884046000,11.919046142578125,-0.003139467069506645,-0.01752498916611075,-0.008266308563947677
1684131145894018000,11.92901806640625,-0.00018821604847908018,-0.011862287229299544,-0.017538579300045966
1684131145903990000,11.938989990234376,0.004310264414548874,0.001838321343064308,-0.017094927185773847
1684131145913962200,11.948962158203125,-0.0036386487632989882,0.00984670962318778,-0.01667348690330982
1684131145923934000,11.958933837890624,-0.004666238245368003,0.009523907409608363,-0.01991349173784256
1684131145933906200,11.96890625,-0.008995791882276534,0.020577508604526517,-0.02491875267922878
1684131145943878100,11.978878173828125,-0.0024894787281751632,0.009042115242034196,-0.027743162450194356
1684131145953851000,11.988850830078125,0.0023918635725975034,0.014199644135683774,-0.03367021441161632
1684131145963823000,11.998822998046874,-0.0045434886485338204,0.012300094124674796,-0.026626141119003296
1684131145973795000,12.008795166015625,-0.00293839153945446,0.005325578936934471,-0.020167758759856224
1684131145983767000,12.01876708984375,-0.008005027279257775,0.004365793994069099,-0.020987258449196813
1684131145993739000,12.028739013671874,-0.01781739624142647,0.0033849662631750105,-0.017254501661658286
1684131146003711000,12.0387109375,-0.010195230799913406,0.0005824760630726814,-0.01208732815682888
1684131146013684000,12.04868408203125,0.0007101940959692001,-0.008539280286431312,-0.004350011903047561
1684131146023656200,12.05865625,0.012812135300040245,-0.0173889416962862,-0.005942834052443504
1684131146033628000,12.0686279296875,0.022579496076703072,-0.029298282937705516,-0.010951602125167846
1684131146043600100,12.07860009765625,0.02123275764286518,-0.02486614570915699,-0.00943476782143116
1684131146053572000,12.088572021484374,0.03126724492311477,-0.017563421480357645,-0.015841127732396126
1684131146063544000,12.0985439453125,0.034978958922624585,-0.0016553659915924071,-0.0034369887113571166
1684131146073516000,12.10851611328125,0.03888590323328971,0.02422258710861206,0.009964344653487205
1684131146083489300,12.1184892578125,0.025388708278536794,0.022729279810935258,0.02378419569134712
1684131146093461000,12.1284609375,0.015508534777164459,0.021514789454638958,0.02987842091321945
1684131146103433200,12.13843310546875,0.017971710020303726,0.009891863939166069,0.026807927426695823
