time,seconds_elapsed,z,y,x
1684119873580682000,0.038681884765625,0.1285246731042862,0.16342793644219636,0.2102005012720823
1684119873590652000,0.04865185546875,0.10915770933330059,0.07925736884921789,0.17698241454213856
1684119873600622000,0.0586220703125,-0.0558095655053854,0.0341439694032073,0.04090571862310171
1684119873610592000,0.068592041015625,-0.019462240839004514,0.052851592482626435,0.02844020480364561
1684119873620561200,0.07856103515625,-0.01656067417860031,0.14031944805532692,0.018232699044048783
1684119873630531000,0.088531005859375,-0.19980127233266828,0.2078895939812064,-0.1522568463474512
1684119873640501000,0.0985009765625,-0.02890110031366348,0.21564181554317474,-0.3180295923501253
1684119873650470100,0.10847021484375,-0.05483516751527786,0.253273334801197,-0.25447072789222
1684119873660440300,0.1184404296875,-0.25118425356745716,0.28803835871219635,-0.013918927498161792
1684119873670410200,0.12841015625,-0.20061551132500172,0.13727233544439077,0.16015636742562053
1684119873680379100,0.138379150390625,-0.16029928302764893,-0.0009068857118487357,0.2421376082807779
1684119873690349000,0.14834912109375,-0.008171616017818451,-0.018431728747487067,0.22592004845142363
1684119873700319000,0.158319091796875,0.10160568651854991,-0.07784808657318353,0.043181554600596424
1684119873710288100,0.1682880859375,-0.06413900243341922,-0.09661708445101976,-0.05629384189099073
1684119873720258000,0.178258056640625,-0.16580898635983465,0.10071282933205365,0.17553747643083334
1684119873730228200,0.188228271484375,-0.2769119845420122,0.1751356176316738,0.46064650369286536
1684119873740197000,0.198197021484375,-0.645695028051734,0.07599573670476674,0.6306660934850573
1684119873750167000,0.2081669921875,-0.8987515052318572,0.05521364543884992,0.35453999862372876
1684119873760137000,0.218136962890625,-0.6202665722846985,-0.025290508601069447,-0.8350798280492424
1684119873770106000,0.228106201171875,-0.5377706599056721,0.2199360056057572,-1.5084467068806289
1684119873780076000,0.238075927734375,-1.1045371126711367,0.6980655590191484,-0.23867343930155038
1684119873790046000,0.2480458984375,-1.2333639835923909,0.5234986811861395,1.1112708048403261
1684119873800015000,0.25801513671875,-0.6847644711583852,0.6264844238862395,1.5221695272848008
1684119873809985300,0.2679853515625,-0.8237596848726272,1.1345835836276412,1.7247434792011975
1684119873819955200,0.277955078125,-0.8723188408583402,1.3593775506585835,1.593444080686569
1684119873829924000,0.287924072265625,-0.8793968164205551,1.4833964367762207,1.330564420889318
1684119873839894000,0.29789404296875,-0.9914438174545764,1.5856512348532676,0.8995350568249821
1684119873849864000,0.307864013671875,-1.2093266899228095,1.6217349401473997,0.07321838094592094
1684119873859833000,0.3178330078125,-0.7214794600933789,1.6987193956285713,0.10048720388263463
1684119873869803300,0.32780322265625,-0.7366518947839736,1.499147548137605,0.2756941331848502
1684119873879773200,0.337773193359375,-0.503680174255371,0.704310298627615,0.1038496660530567
1684119873889742000,0.3477421875,-0.3219593330144882,0.5604115307807922,0.42436932165324687
1684119873899712000,0.3577119140625,-0.09573533318042754,0.42431262302994727,0.20891922928988932
1684119873909682000,0.367681884765625,0.4802443536102772,0.25505086586773396,0.18853052125573158
1684119873919651000,0.377651123046875,0.11847966443002224,-0.17886925120204686,-0.15221066911816597
1684119873929621000,0.38762109375,-0.14264321482777595,-0.7880778383776545,-0.7192255436867475
1684119873939591200,0.397591064453125,0.17364917846620082,-0.9896613179519772,-0.9106371733367442
1684119873949560000,0.40756005859375,0.33571664021015163,0.7804796383336186,-0.690533409948647
1684119873959530200,0.4175302734375,0.07600771940350533,0.2152303121328354,-0.7189607552707195
1684119873969500200,0.427500244140625,-0.4575619816809892,0.5160127093449235,-0.6165864224672317
1684119873979470000,0.437469970703125,-0.07354512868225574,1.9769886399984358,-0.501330396258831
1684119873989442600,0.447442626953125,-0.44525604233741756,1.8548221037492154,0.9208136994361877
1684119873999412500,0.45741259765625,-0.2987964840918779,1.807847294345498,1.7107342430710792
1684119874009382400,0.46738232421875,-0.08881225591897964,1.8867402137964964,1.2952239351779222
1684119874019351600,0.4773515625,-0.35158874760270115,1.8024904434874653,1.1790373501211404
1684119874029321700,0.48732177734375,-0.2711123583525419,1.1077800401151179,1.803812924262881
1684119874039291600,0.497291748046875,0.07057400391697884,0.3046943099588156,1.8819933115303515
1684119874049260500,0.507260498046875,-0.09749766667783259,-0.15257687208205462,1.667809293580055
1684119874059230500,0.51723046875,-0.9074889384388923,-0.26976941931098697,1.1460311525762081
1684119874069200600,0.52720068359375,-1.7449100689172743,-0.9299117826491594,1.4626321734279393
1684119874079169500,0.53716943359375,-1.4099217429816722,-1.248184828366339,1.4881097290337084
1684119874089139700,0.5471396484375,-1.671906792026758,-0.9458566630169749,1.0210925212651492
1684119874099109600,0.557109619140625,-2.0405191551446915,-0.4829281858667731,0.6484948879033327
1684119874109078500,0.56707861328125,-1.7650515241920948,-0.412723892045021,0.4977957923918962
1684119874119048700,0.577048583984375,-1.0009627564281225,-0.29875352173298597,0.7268249127745628
1684119874129018600,0.5870185546875,-0.7499018369793892,-0.06215776548832654,1.3793471564978361
1684119874138987500,0.596987548828125,-0.6009998540177941,-0.24455665212124586,2.729922976541519
1684119874148957400,0.60695751953125,0.3101385468393564,0.4592027346253395,3.8829847584068773
1684119874158927600,0.616927734375,0.21083792239278554,-0.24511282469928264,3.8792952562391756
1684119874168896800,0.626896728515625,2.0326541208580133,-1.315400169505179,5.2166246412187816
1684119874178866700,0.63686669921875,4.667034656442701,-1.5819766379937528,3.520965217682719
1684119874188836600,0.646836669921875,5.374771130126715,-1.8163392283588646,2.3536036923080683
1684119874198805500,0.656805419921875,6.044998541888594,-1.84861243545413,1.3269453536093234
1684119874208775400,0.666775390625,6.5771291500806806,-2.092865428453684,-1.658128442043066
1684119874218745600,0.67674560546875,3.9647853819981216,-2.2814345281541346,-4.075349158737064
1684119874228714800,0.68671484375,2.2204922759354115,-1.1218155797302722,-3.1249171506285665
1684119874238684700,0.6966845703125,1.9469015447705984,0.21931728918552398,-1.1857739648997783
1684119874248654600,0.706654541015625,1.3761184037096799,0.8890922810047864,-0.308326528981328
1684119874258623500,0.71662353515625,0.30069910284280776,4.822539398670196,0.1943804163277149
1684119874268593700,0.72659375,-1.9730448708087205,2.8322178143680095,-0.5775964743375778
1684119874278563600,0.7365634765625,-1.9880518858045337,-2.3182068002343175,-2.646034733021259
1684119874288532500,0.746532470703125,0.4330485949322581,2.6105185984820127,-2.9515391903191803
1684119874298502700,0.756502685546875,-1.1670952756538986,1.1376041004925965,-2.4169477449715138
1684119874308472600,0.76647265625,-0.21167992617487907,1.449419056111574,0.13909165982604027
1684119874318441700,0.776441650390625,1.6529213749192655,1.216575345876813,1.257452130666375
1684119874328411600,0.78641162109375,0.9637934478543698,0.26561317641437054,1.7987316754758358
1684119874338381600,0.796381591796875,0.7511280177734792,-0.2904179473251104,3.4221693278878926
1684119874348350500,0.8063505859375,2.5848510732620955,1.1291899078905583,5.32489095467031
1684119874358320400,0.8163203125,0.8668659822799265,-3.1056764435857533,5.743634837657213
1684119874368290600,0.82629052734375,-0.8453104224234819,0.07154840190708636,4.282738694241643
1684119874378260700,0.8362607421875,0.2974766701975837,3.4612563066512343,2.925845946136117
1684119874388229600,0.846229736328125,-0.7577741047244518,-0.07709317655265331,0.035140871486067767
1684119874398199600,0.856199462890625,-1.7480208944141864,-0.2798807712197304,-0.4037584953010082
1684119874408169500,0.86616943359375,-1.8376228394061327,-0.12935469418764114,-0.5530968238532543
1684119874418138600,0.876138671875,-2.3623808730036018,-0.42834757763445375,-0.4758762215286493
1684119874428108800,0.88610888671875,-2.5201608666867017,-0.05633095903098583,-0.7544803969413042
1684119874438078700,0.89607861328125,-2.3326140957713126,-0.3306166867226362,-1.575616747573018
1684119874448047600,0.906047607421875,-1.1924392680078744,-0.18855390213131903,-0.7972890265762805
1684119874458017500,0.916017578125,-0.6913532018989325,-0.8011562233984469,0.9015262306421995
1684119874467987500,0.925987548828125,-0.627744360819459,0.27877719389200206,3.658836395803094
1684119874477956600,0.93595654296875,1.5641864220201969,-2.9692040263473984,3.582883621457219
1684119874487926500,0.945926513671875,3.059384063488245,-3.6763457490086555,-0.5910024838775396
1684119874497896700,0.955896728515625,2.6855086652755737,-3.5417268506824966,-2.171242215076089
1684119874507865600,0.965865478515625,2.953598460936546,-2.5923282772749663,-1.1590689133256673
1684119874517835500,0.97583544921875,2.6635189517855644,-2.140190658730268,-0.2599795544415712
1684119874527805400,0.985805419921875,2.309091765886545,-1.9094740236520766,0.0019786065965890884
1684119874537774600,0.995774658203125,1.9627835890352725,-1.8620675448328257,-0.800258982297778
1684119874547744500,1.00574462890625,1.4100292950093745,-1.9816665686815975,-2.415166999034583
1684119874557714700,1.015714599609375,1.0256349139351397,-2.175781027549505,-4.058116284385323
1684119874567683600,1.02568359375,0.20368125557117162,-2.9928169571250676,-4.8021790399476885
1684119874577653800,1.03565380859375,-0.7641477314095944,-3.4016339048594233,-5.24698938434422
1684119874587623700,1.045623779296875,-1.5422446393251419,-4.300547907176614,-5.212947998532653
1684119874597592600,1.055592529296875,-1.954013422602415,-4.657842172944545,-4.499951120102406
1684119874607562500,1.0655625,-2.2628280273616315,-6.0338581391930575,-3.6373277438282963
1684119874617532400,1.075532470703125,-1.5722949096739292,-6.309238091862201,-1.9752847586899995
1684119874627502600,1.085502685546875,-2.0498738434672354,-2.340244444519281,-1.8217147839173673
1684119874637471700,1.0954716796875,-2.440911973404884,0.49810500447154044,-2.427576106491685
1684119874647441700,1.105441650390625,-6.005200199985504,7.3511921993702645,1.019214744694531
1684119874657411600,1.11541162109375,-4.4076738184213635,11.797570134717226,0.8312140925318002
1684119874667380500,1.12538037109375,-0.6725440181411803,11.613822171562909,-0.3292831000313163
1684119874677350400,1.135350341796875,-2.169333751106262,9.025971916484833,0.6798913121640682
1684119874687320800,1.14532080078125,-2.766948931121826,6.692172410321235,0.6552434853807091
1684119874697289700,1.155289794921875,0.2833598089745268,6.567997749119996,0.5112938641294836
1684119874707259600,1.165259765625,-1.363005678027868,-2.8852836341232058,-4.69578524236977
1684119874717229600,1.1752294921875,0.8329811022043228,-3.189858117094636,-0.7469564311772584
1684119874727198700,1.18519873046875,3.7229566935360427,-1.4637632232844828,2.189500633083284
1684119874737168600,1.195168701171875,3.5308711101472374,-1.291781101247668,2.9760154599279165
1684119874747138600,1.205138671875,3.1343419815778732,-2.578365218374133,2.5870029905989766
1684119874757107500,1.215107421875,3.615872283345461,-4.0994682854712,1.1262735820524394
1684119874767077600,1.22507763671875,2.7483260637164113,-3.471005547249317,0.2327294362053275
1684119874777047600,1.235047607421875,0.649296267414093,-2.0203449666440485,0.558420430028811
1684119874787016700,1.2450166015625,-1.093660402413085,-0.3825362590521574,1.2908090413451194
1684119874796986600,1.254986572265625,-2.133184579360485,-0.6822948661744594,0.2015484447935596
1684119874806956500,1.26495654296875,-1.4328817628085613,-0.9889999314337968,1.4098998234108089
1684119874816925400,1.274925537109375,-0.3200094045231119,-1.197055821892619,2.8611452181667087
1684119874826895400,1.284895263671875,0.47223636718895284,-1.2078285603195429,3.857110312438011
1684119874836865500,1.294865478515625,0.9215899445056914,-1.0062737223178149,4.08237657315582
1684119874846834700,1.304834716796875,1.0023743767917155,-0.9560165302425623,3.6181010653108356
1684119874856804600,1.3148046875,0.6469254466295242,-1.0534937386542558,2.307500989563763
1684119874866774500,1.3247744140625,-0.03235449217054993,-1.1196253762096167,0.6018918344214558
1684119874876743700,1.33474365234375,-1.031003089904785,-1.1606950532227753,-0.5601089676376432
1684119874886713600,1.344713623046875,-2.2598434585928917,-0.6498585774719715,-0.39662995859533545
1684119874896683800,1.354683837890625,-2.689179462742805,-3.2153421024411917,1.609535383787751
1684119874906653700,1.36465380859375,-6.430650302612781,-7.971415517035126,1.1588780669286847
1684119874916622600,1.37462255859375,-3.7691596417844293,-6.737074797365069,4.884012396764755
1684119874926592500,1.384592529296875,-1.0107109010476618,-5.546627579957247,4.471775995975732
1684119874936562400,1.3945625,1.320673287602514,-2.0239801082760094,0.5997132482733577
1684119874946531600,1.404531494140625,3.301646174931526,2.4482167434602973,-0.9995600500233471
1684119874956501500,1.41450146484375,3.1858301767528054,6.686621790456772,-1.9701646391972898
1684119874966471700,1.4244716796875,2.778940982210636,7.185857844784856,-2.5039891918256876
1684119874976440600,1.434440673828125,2.2088111904919145,5.706129575127363,-1.2985931193500757
1684119874986410500,1.444410400390625,2.4076807349324225,3.2036376361221075,-0.8700470234688371
1684119874996376300,1.454376220703125,4.968430217117071,-0.8325146537363529,-3.370157108838856
1684119875006345200,1.46434521484375,2.4806720291242,-3.550320491504669,-4.785784077724814
1684119875016315100,1.474315185546875,0.3161056385502219,1.5595120004683731,0.8045438200101256
1684119875026285300,1.484285400390625,-0.7860513009861111,0.7799906857728958,0.57819612073116
1684119875036254500,1.49425439453125,-1.233872079245001,0.7789367928057909,0.9691620622154324
1684119875046224400,1.504224365234375,-1.3379334883525966,0.21172084270715713,1.8191954945728182
1684119875056194300,1.5141943359375,-1.2492298073746264,0.0004909983873367309,1.5139976190060376
1684119875066163200,1.5241630859375,-1.7641665580511092,0.2541203070193529,1.4330112344071269
1684119875076133400,1.53413330078125,-2.1817231309495866,0.07275660865306854,0.8661267812851816
1684119875086103300,1.544103271484375,-1.0755848666921257,0.9793015442401171,-0.001150850535556674
1684119875096072200,1.554072265625,-0.14661664850339293,1.5144564686894415,-0.745482997623831
1684119875106042400,1.56404248046875,0.6182160694956779,1.3558166433066128,-0.6168122671123594
1684119875116012300,1.57401220703125,1.1588638922728598,0.21242577610611915,0.20843809470944105
1684119875125981400,1.5839814453125,1.0535352397084234,-0.9563070376217365,0.9351542133472859
1684119875135951400,1.593951416015625,1.0074491958379745,-1.1755325568705797,1.805900251930952
1684119875145921300,1.60392138671875,0.6396387967526912,0.091806761559844,1.8530106704130769
1684119875155890200,1.61389013671875,0.26477555654644963,1.6384569423675537,1.1685051424518227
1684119875165860400,1.6238603515625,0.07666136100664735,2.899181226572394,0.0730168670244515
1684119875175830300,1.633830322265625,0.23255115702897308,3.3431104042202233,-0.6891853563405573
1684119875185800200,1.64380029296875,0.3522106788933277,1.3384376384824515,-0.2769097195196897
1684119875195769300,1.653769287109375,-0.035970454178005457,1.5378285764485597,0.5431942193243652
1684119875205739300,1.6637392578125,0.24384821159094572,1.2521920181810855,-0.05352094311155379
1684119875215709200,1.673709228515625,0.014160627299547195,2.0039958893895147,-0.11674882204942405
1684119875225678000,1.683677978515625,0.7800058833420276,1.122345741084218,-0.22136735358312726
1684119875235648500,1.6936484375,0.7809307431019842,0.7572662282675504,-0.22711181551925835
1684119875245618400,1.703618408203125,0.8869570225417613,0.20282617311179638,-0.06496325136311352
1684119875255587300,1.71358740234375,0.26940964608788487,0.07194178513884544,0.4203571634024381
1684119875265557200,1.72355712890625,-0.14135850877948106,-1.0392910257786512,0.14334792903102933
1684119875275527200,1.733527099609375,-0.4579343221247196,-1.4456459673136473,0.053572161842137575
1684119875285496300,1.743496337890625,-0.16267711807489393,-2.215706795224547,-0.00894384249933064
1684119875295466200,1.75346630859375,0.12208090379238128,-2.53359201066792,0.5808158017102628
1684119875305436400,1.7634365234375,-0.36091435596123334,-1.2575392244279384,0.13014803652241824
1684119875315405300,1.7734052734375,-0.7563362539410591,-0.19233400519192217,-0.24286263461969793
1684119875325375200,1.783375244140625,-0.6239221721827983,0.06090542733967304,-0.10411262783817947
1684119875335345200,1.79334521484375,-0.13449030351042746,0.9001631255954503,-0.7755598637185991
1684119875345314300,1.803314208984375,0.28509938265085216,0.7147901915878057,-1.1411417000342159
1684119875355284200,1.8132841796875,0.47236616758108135,0.46181905460357664,-1.4216243096046148
1684119875365254400,1.82325439453125,0.7004148986242711,0.618199118360877,-1.5747754744432865
1684119875375224300,1.833224365234375,0.904163155017048,0.5290139374762773,-1.543411637277901
1684119875385193500,1.843193359375,1.0117105065442622,0.6312497385919094,-1.1834263057950885
1684119875395163400,1.853163330078125,0.6547101822216064,0.13270809626877308,0.496997554686293
1684119875405133300,1.86313330078125,0.1621462991338223,-0.75896426435709,1.4101232569031417
1684119875415102200,1.873102294921875,0.3464671668052673,0.2747118441492319,0.6957907459549606
1684119875425072000,1.883072021484375,-0.339614305235818,1.0089064089089632,0.6524319350913167
1684119875435042300,1.893042236328125,-0.7614298507530242,1.805775164246559,0.8436400780584663
1684119875445011500,1.903011474609375,-0.3819803056698292,1.6035931342571972,0.7382599875677377
1684119875454981400,1.9129814453125,-0.6840169407267123,2.1514655014604327,0.9645310414139181
1684119875464951300,1.922951416015625,-0.643011561121419,1.806636749511957,0.7314673317529261
1684119875474920200,1.932920166015625,-0.33509470891952514,1.7059107684373855,0.5501901426263153
1684119875484890000,1.94289013671875,-0.10973346339464186,1.7873738306373357,0.21188523948863147
1684119875494860300,1.9528603515625,0.11030037656240164,1.4688409649401901,0.18783230985850094
1684119875504829400,1.962829345703125,0.17258008792996404,0.9865437704533337,0.6640962155304849
1684119875514799400,1.97279931640625,0.04960727679915726,0.7195861936926842,0.7206218203507363
1684119875524769300,1.982769287109375,-0.1980278329193592,1.4170809670865534,0.3632672026976943
1684119875534738200,1.99273828125,-0.29906945581436156,2.3826146827369925,0.09254062879234552
1684119875544708400,2.002708251953125,-0.0953974795281887,3.3212142142325636,0.8551168000362813
1684119875554678300,2.01267822265625,0.247227040374279,4.3081455226987595,1.7360199293665586
1684119875564648400,2.0226484375,0.7291945645153523,5.532338357841968,1.8003088616646825
1684119875574617300,2.032617431640625,0.7427800222754478,6.210804021117091,1.9096435350000858
1684119875584587300,2.042587158203125,1.3409763631798326,5.808102341392636,1.9155632804378866
1684119875594557200,2.05255712890625,2.933116813921928,4.5499306642800565,1.383310507170856
1684119875604526300,2.0625263671875,0.3818517108540982,2.9985131229400634,0.7647203436657786
1684119875614496300,2.072496337890625,-0.4438952753782272,0.8668576528429984,0.9635125850863754
1684119875624466400,2.082466552734375,-0.9110545219659805,-0.8851730617344379,0.7341020641706884
1684119875634435300,2.092435302734375,1.1109399654507637,-3.012895284035802,-0.7911931939192116
1684119875644405200,2.1024052734375,0.30426600154414774,-2.9175872363567352,0.7803494360826909
1684119875654375400,2.11237548828125,-3.1661972555220124,-3.7691011895954607,0.2724435886899941
1684119875664344300,2.12234423828125,-4.734577037578821,-5.330963552582264,-1.5344127766557036
1684119875674314200,2.132314208984375,-3.5122646093547343,-7.3435770481914275,-3.182164639982581
1684119875684284200,2.1422841796875,-0.5525251614451409,-8.212184759572148,-3.0230548590004442
1684119875694253300,2.15225341796875,3.1564298947453495,-7.7058397500216955,-1.1148561890464275
1684119875704223500,2.162223388671875,1.1706021147310732,-5.227077646172046,-0.8015973182294517
1684119875714193400,2.172193359375,-3.5522634422659873,-2.1819448108762503,-1.0839210986871273
1684119875724163300,2.182163330078125,-0.4918588766235858,0.8562450734138488,-0.24078979213470592
1684119875734132200,2.19213232421875,1.856810939478874,2.4014947397738693,0.2745236281007528
1684119875744102100,2.20210205078125,1.1326166674688458,2.433677930498123,-0.033071682262886315
1684119875754072000,2.212072021484375,0.6240262170791626,1.5943226170867681,-0.28324257580302653
1684119875764041200,2.222041259765625,0.9527427692689001,0.7338315766662359,0.6749835933130234
1684119875774011400,2.232011474609375,0.9386205742835998,0.5675017813026905,1.637244351707399
1684119875783981300,2.241981201171875,-0.011256795616820454,-0.09882511588931082,1.566832844875753
1684119875793950200,2.2519501953125,-0.26875717352852224,-0.5224848279684782,1.0826984250243752
1684119875803920400,2.26192041015625,-0.5123217458724976,-0.5911567976564168,0.5532652392227202
1684119875813890300,2.271890380859375,-1.1572058959327638,-0.5788163715213537,0.5179725381758064
1684119875823859200,2.281859130859375,-0.3678255966544151,-0.3404284711629152,0.7762235883243381
1684119875833829400,2.291829345703125,0.563565610897541,-0.5133037426471709,0.9007719051435589
1684119875843799300,2.30179931640625,0.1666226408302784,-0.8842828348964452,-0.005468567604199052
1684119875853768400,2.3117685546875,0.12040800214409828,-0.37900457779467106,-0.5757279770519584
1684119875863738400,2.32173828125,0.41823476442098617,0.18206220202445983,-0.3913569866284728
1684119875873708300,2.331708251953125,-0.22486425578817723,0.019212065470218656,-0.31792072514817116
1684119875883678200,2.34167822265625,-0.4421265121400356,0.2215256128847599,-0.20449834410771725
1684119875893647000,2.351647216796875,0.3657563891649246,0.9783493580818176,0.8814343866627663
1684119875903617300,2.3616171875,1.5241618701457977,0.841488818308711,1.1866367922741918
1684119875913587500,2.37158740234375,0.8117116658128798,0.4274140961766243,0.9140434015836566
1684119875923556400,2.381556396484375,-1.3353227213323116,0.08798515744507313,0.5634112971186638
1684119875933526300,2.3915263671875,-1.847423371800035,-0.3499275363922119,0.09992525001778267
1684119875943496200,2.40149609375,-0.23200609036684036,-0.4738853399723768,-0.3604639818452298
1684119875953465300,2.41146533203125,0.1882195556104183,-0.05693301657736301,-0.5018381265852601
1684119875963435500,2.421435546875,-0.10758015781827271,0.2411702245533466,-0.49390397258512675
1684119875973405400,2.431405517578125,-0.20533552558422088,0.06260229438543319,-0.6059684362106025
1684119875983374300,2.441374267578125,-0.11593063753433525,-0.17684651320278644,-0.8601086900394409
1684119875993345300,2.45134521484375,-0.054752311537414784,-0.3827279822319746,-1.2547522240579128
1684119876003315200,2.461315185546875,0.04711472933106124,-0.3425894485890865,-1.7468426444150507
1684119876013284000,2.4712841796875,-1.0602712699651717,0.011066168415546416,-2.344998945569992
1684119876023254300,2.481254150390625,-1.4553917007803916,0.16263853963017463,-2.619823602443933
1684119876033224400,2.491224365234375,-0.5345278785921633,0.4770265606075525,-1.1390692776743323
1684119876043194400,2.5011943359375,-0.9192869282603263,-0.46543373796939846,-1.270412150004506
1684119876053163300,2.511163330078125,0.026931042349711058,-0.8677794438630342,-0.058629723792918954
1684119876063133200,2.52113330078125,0.4064097404621541,-0.2598234870970249,1.2637803107745944
1684119876073103000,2.53110302734375,1.2141583478629587,0.3473012795418501,1.965095080848038
1684119876083072300,2.541072265625,2.307091239719093,0.872500042644143,1.9475098859272897
1684119876093042400,2.55104248046875,1.743697916648537,1.1422013651549816,1.611864265126735
1684119876103012400,2.561012451171875,-1.5009014060676098,0.18462708407640457,-0.05675152253061533
1684119876112981200,2.570981201171875,-1.4005904355347156,-0.33342356083691116,-0.49808096600882706
1684119876122951200,2.580951171875,-0.5867033253788948,-0.5750993968248367,-0.5987068477097899
1684119876132921300,2.59092138671875,-0.1512671046577394,-0.5124579394727945,-0.17205094948932528
1684119876142890200,2.60089013671875,0.24167057529091834,-0.34689854395985603,0.5137807125091552
1684119876152860400,2.6108603515625,0.4623135601222515,-0.20591127964556216,0.9860792216815054
1684119876162830300,2.620830322265625,0.5111341435231268,-0.049018590191006656,1.414067318353802
1684119876172799200,2.63079931640625,0.40790385147742925,0.16351590698659418,1.670532581064105
1684119876182769400,2.640769287109375,0.2105858473278582,0.35422903297841546,1.8342776206314562
1684119876192739300,2.6507392578125,-0.08366144902706146,0.4584913714855909,1.7508347827911377
1684119876202709200,2.660709228515625,-0.35211247921586036,0.4002513639628887,1.485683963191509
1684119876212678100,2.67067822265625,-0.4325941291630268,0.34977731426656244,1.228443332194537
1684119876222648300,2.6806484375,-0.2898433623075485,0.41235739682018757,1.1164532489795238
1684119876232618200,2.6906181640625,0.20033435629606247,0.5573147338092327,1.2615490445911883
1684119876242587400,2.70058740234375,0.9061609047055244,0.8221218545377253,1.7352542056910694
1684119876252557300,2.710557373046875,1.2779425455093383,1.031737833920121,2.236162431015074
1684119876262527200,2.72052734375,1.0909857033111154,1.3040443704932927,2.422932956860959
1684119876272496000,2.73049609375,0.536709095088765,1.4611545020908117,2.3262971677094697
1684119876282466300,2.74046630859375,0.11828969481587409,1.5112304923802613,2.0356161855340003
1684119876292436500,2.7504365234375,-0.0942133843101561,1.4049404474377631,1.5932345295891164
1684119876302406400,2.760406494140625,-0.06286985928043723,0.9465355851918459,0.8180342929631471
1684119876312375300,2.770375244140625,0.31569559644460676,0.1413029061347246,-0.06829962924420833
1684119876322345200,2.78034521484375,0.4331457716964185,-0.8359101413935422,-0.8967327127553522
1684119876332315100,2.790315185546875,0.4497885712005198,-1.6041805787563324,-1.408076845767349
1684119876342284300,2.8002841796875,0.5254547106247395,-2.3595541251450776,-1.810216799955815
1684119876352254500,2.81025439453125,0.7072340771198272,-2.4813445215582846,-1.6317441468559204
1684119876362224400,2.820224365234375,0.5383960252624005,-2.7081705789387223,-1.6704833350948989
1684119876372193300,2.830193359375,-0.0058357204161584375,-2.492116675463319,-1.6708689734116196
1684119876382163200,2.8401630859375,-0.36678280960321424,-2.0522838272184134,-1.6446671951845286
1684119876392133000,2.850133056640625,-0.5293171582065522,-1.7864041088223457,-1.9735741553798316
1684119876402102300,2.860102294921875,-0.425089891012758,-1.1233458580374718,-1.9054536820948123
1684119876412072200,2.870072265625,-0.5171814608633518,-0.3411865960538387,-1.513169059227407
1684119876422042400,2.88004248046875,-0.6351718804717064,0.1385153212428093,-1.2425327939540147
1684119876432011300,2.89001123046875,-0.26589550048708915,0.38798400306403635,-1.004689667996764
1684119876441981400,2.8999814453125,0.9118483026921749,0.7268710900038481,-0.19313187757134437
1684119876451951400,2.909951416015625,1.8729016580581663,1.3114116843909025,1.179676232546568
1684119876461921300,2.91992138671875,2.054351427272707,1.8075532798349856,2.645383867897093
1684119876471890200,2.92989013671875,1.3359798700667918,2.06126091440022,3.858162159578502
1684119876481860400,2.9398603515625,-0.23835180613175033,1.9541081151485442,4.232741906668245
1684119876491830300,2.949830322265625,-1.2835935570083559,1.6531155823171138,3.544693883794546
1684119876501799400,2.95979931640625,-0.1545931803405285,1.488015621009469,2.369156650748849
1684119876511769300,2.969769287109375,1.2760942872941494,0.8492991997987032,0.7491191621690988
1684119876521739300,2.9797392578125,0.6905645357392728,0.4726777177482843,0.2201195454791188
1684119876531708200,2.989708251953125,-0.9256278217196464,0.07967033356428146,0.6096235977172851
1684119876541678000,2.999677978515625,-1.9428760886467993,-0.4537602513104677,1.2480337294578552
1684119876551648300,3.009648193359375,-1.8066554542124271,-0.8950789541989564,1.9160726912647486
1684119876561617400,3.019617431640625,-1.2003110242962836,-0.9967466000378131,2.5196087857618927
1684119876571587300,3.02958740234375,-1.1789724681913851,-0.6411568001002073,2.54222715254426
1684119876581557200,3.03955712890625,-0.9347921020366251,0.5977215629994869,1.9701295678839086
1684119876591527200,3.049527099609375,-0.06858911371007562,2.3479309073686596,1.3493182211980224
1684119876601496300,3.059496337890625,0.7253123162545263,4.01233711450696,1.242302492329478
1684119876611466500,3.069466552734375,0.8403295652709901,5.1221951299399135,1.6451643310517072
1684119876621436400,3.0794365234375,0.4061152875602245,5.128856925916671,2.264933475208282
1684119876631405300,3.0894052734375,-0.32153146299123764,3.901801102557778,2.7662846219941972
1684119876641375200,3.099375244140625,-1.0075530946038662,2.157291431134939,2.954410069580376
1684119876651345200,3.10934521484375,-1.3283366618372499,0.7245476154923438,2.762392875252664
1684119876661314300,3.119314208984375,-1.1814341821298002,-0.09926000017523764,2.154930985613912
1684119876671284200,3.1292841796875,-0.7153099776782095,-0.07138356673419476,1.3320363931380212
1684119876681254400,3.13925439453125,-0.41223187074437734,0.6867191123574972,0.662197396171838
1684119876691224300,3.149224365234375,-0.7876083211697638,1.8178817816257475,0.12609364656507968
1684119876701193200,3.159193115234375,-1.6512592869259417,2.863368154913187,-0.4248332859031856
1684119876711163400,3.169163330078125,-2.2005904746353626,3.437213752284646,-0.6539439470894635
1684119876721133300,3.17913330078125,-2.127730990129709,2.7156787626117467,-1.3295955758571625
1684119876731102200,3.189102294921875,-1.7296259905457496,1.2460434324234724,-1.8355267439097165
1684119876741072400,3.199072265625,-1.7339479453980922,-0.08846797252595424,-1.4728903864614664
1684119876751042300,3.209042236328125,-1.9858757108092306,-1.4730886855125427,-0.6999919970370829
1684119876761011500,3.219011474609375,-1.9113551612235604,-2.947932690259814,-0.0022264438778162
1684119876770981400,3.2289814453125,-1.9015584282219409,-4.469460120248795,0.45674189746975896
1684119876780951300,3.238951416015625,-2.0366927287243306,-6.229741361299157,0.6030676002025603
1684119876790920200,3.248920166015625,-2.166771207141876,-7.86720987715125,0.6923948199063539
1684119876800890000,3.25889013671875,-2.789408015689254,-9.303865897801519,0.7103706215798854
1684119876810860300,3.2688603515625,-4.290419896394014,-10.462427446126938,0.6243766379520297
1684119876820830500,3.27883056640625,-5.83099747928977,-11.262867045688628,0.6174073834612965
1684119876830799400,3.28879931640625,-5.427303281396627,-12.808092746651171,0.18469371957182884
1684119876840769300,3.298769287109375,-2.0891341329708695,-15.171873549580573,-0.7717217468604445
1684119876850739200,3.3087392578125,2.3192285444974896,-16.82953320506811,-1.8087731770187616
1684119876860708400,3.318708251953125,5.911115556621551,-17.011251708221433,-2.0791580978795885
1684119876870678300,3.32867822265625,12.29022388804555,-12.09864683870077,-0.002943652236461639
1684119876880648400,3.3386484375,18.95388799676299,0.19727613776922226,3.6405502130061387
1684119876890617300,3.348617431640625,11.607751327216624,9.43422538511753,5.503030430293083
1684119876900587300,3.358587158203125,-2.999464724576473,13.334347156286238,8.568290692338348
1684119876910557200,3.36855712890625,-12.164078219032287,11.049741012358664,9.851181215643882
1684119876920526300,3.3785263671875,-15.55338514176011,3.473392150124907,5.610381966987252
1684119876930496300,3.388496337890625,-10.519749169760942,-3.9652497846394774,-0.31040216621160505
1684119876940466400,3.398466552734375,1.7373764585420488,-8.982712035951018,-5.9243473786383865
1684119876950436400,3.408436279296875,8.699837928134203,-9.967232191622257,-10.585220297580957
1684119876960405200,3.4184052734375,2.050320125930011,-6.8603352663308375,-13.198970717591047
1684119876970375400,3.42837548828125,-6.5406099759787315,-0.8047504484981298,-14.191888699251413
1684119876980345300,3.438345458984375,-5.68410829745531,4.336764298939705,-15.538062484943866
1684119876990313500,3.4483134765625,0.4177037262842059,7.647377039659023,-15.921056424635648
1684119877000283400,3.458283447265625,3.3940114471569656,10.329860219633579,-5.703344912844896
1684119877010253600,3.468253662109375,4.18650944006443,7.692475826057791,5.060324072438478
1684119877020222700,3.47822265625,2.0800465711519123,1.3875181879937648,7.795838585376739
1684119877030192600,3.488192626953125,-0.6201733410432935,-2.6828216181486844,7.78477709313631
1684119877040162600,3.49816259765625,-1.28810387403965,-4.266953096088767,5.001892926257849
1684119877050132500,3.508132568359375,-0.09453618652373552,-3.8629163683682677,0.4488777399659157
1684119877060101600,3.5181015625,0.6627844022795557,-2.280478834864497,-3.262966023403406
1684119877070071600,3.528071533203125,1.0607543773069976,-0.5685773015797138,-4.7953404260993
1684119877080041700,3.538041748046875,1.1411992023751139,0.9442442593842745,-5.12091444247961
1684119877090010600,3.5480107421875,1.4060083689302205,1.9453496391534804,-5.116407194188237
1684119877099980500,3.55798046875,2.054557325108349,2.119054931721091,-4.322091630464792
1684119877109950500,3.567950439453125,1.82143012175709,1.773062981212139,-2.8359154998421667
1684119877119920400,3.57792041015625,0.8000231277152895,1.4217097959309815,-2.97927241589725
1684119877129889500,3.5878896484375,0.30583091277331115,0.5270160416573286,-3.229697960051894
1684119877139859500,3.597859375,0.27773206875324247,-0.24364742832183836,-2.623322550475597
1684119877149829600,3.60782958984375,0.3796078043848276,-0.4991565593510866,-2.060115251496434
1684119877159798500,3.617798583984375,0.6724789900809526,-0.4219114071071148,-1.5662299105465411
1684119877169768400,3.6277685546875,0.015895780529081822,0.3151186733394861,-1.6485229938298462
1684119877179738600,3.637738525390625,-0.7988967540338635,1.3591887500882147,-1.9021295061081647
1684119877189707500,3.64770751953125,-1.0162260842725634,2.4517770662903784,-2.1255618293970824
1684119877199677400,3.657677490234375,-0.5632490922942758,3.2214386657506227,-2.136470761424303
1684119877209647600,3.667647705078125,-0.983438205653429,3.55358270817101,-2.251277874821424
1684119877219617500,3.677617431640625,-0.8494874158471822,3.5383781247764823,-2.872390250280499
1684119877229586700,3.687586669921875,0.3642179275512695,3.053598465824127,-3.5090836412310598
1684119877239556600,3.697556640625,1.773954669354856,2.078729935595393,-3.656596507921815
1684119877249526500,3.707526611328125,2.5925533182024956,0.8423848903656005,-3.2944851972609754
1684119877259495400,3.717495361328125,4.345069770470261,-0.19414426948428154,-3.183728820559382
1684119877269465300,3.72746533203125,5.368452448499203,-0.6069219375431537,-3.51378378174603
1684119877279435500,3.737435546875,5.801970122247934,-0.10822656596302986,-4.059941746246815
1684119877289404700,3.74740478515625,6.02699000698924,1.5290098946988582,-4.739098898917437
1684119877299374600,3.75737451171875,6.74975483071804,4.00649832535088,-5.664924873557687
1684119877309344500,3.767344482421875,7.049636771959066,6.78224431091249,-6.82332977001667
1684119877319313400,3.7773134765625,5.959593464064597,9.41546398602426,-7.8648115838378665
1684119877329283600,3.78728369140625,5.098159005314112,11.615489227992295,-8.8888974417001
1684119877339253800,3.797253662109375,4.271577248758077,12.543056493341922,-10.124458058553934
1684119877349223700,3.8072236328125,3.7652924449622627,12.437597054004668,-10.789119068360328
1684119877359192600,3.817192626953125,3.9133798966705795,11.691445509469508,-9.849719910919665
1684119877369162500,3.82716259765625,3.692318394166231,10.924426533472538,-8.467416242703795
1684119877379132400,3.83713232421875,3.7187329383611676,10.772601648801565,-6.960475556471944
1684119877389101600,3.8471015625,3.030121728646755,11.209260543185472,-5.36442801528871
1684119877399071500,3.857071533203125,1.6129156738758086,12.423591909527778,-3.5099250604912635
1684119877409041700,3.867041748046875,-0.6770645643055438,13.076626778948306,-1.7578586900785564
1684119877419010600,3.877010498046875,-3.906749080353975,13.052069845318794,-0.275077170330286
1684119877428980500,3.88698046875,-6.689391255170107,13.639573965686559,0.904239727384597
1684119877438950700,3.89695068359375,-7.688285388630628,15.624659402900933,1.9628866110183298
1684119877448920600,3.906920654296875,-6.91631785031557,18.136129013609885,2.5352158124774693
1684119877458889500,3.916889404296875,-5.6555655090600245,18.36682343685627,2.2447744842767716
1684119877468859400,3.926859375,-4.365477183204889,10.901803198254107,0.9080696609362959
1684119877478829600,3.93682958984375,0.8272796026270837,1.8724089061051605,0.6579822626948356
1684119877488798700,3.946798828125,9.780802442038059,-5.518144412794709,2.1039462099164723
1684119877498768600,3.9567685546875,10.46719831379056,-7.499214184626936,4.858739423820376
1684119877508738600,3.966738525390625,9.705686703038214,-5.569463096621632,8.85144887779355
1684119877518707500,3.97670751953125,2.243334806862473,-2.9685774188816545,10.574164650559425
1684119877528677400,3.986677490234375,-7.447764567896724,-1.58370711504817,8.128121159484982
1684119877538647600,3.9966474609375,-7.801862667971849,-2.2768735038489103,5.398533698508143
1684119877548617700,4.00661767578125,-6.82401892132461,-3.9420056871742006,3.2521696118399497
1684119877558586600,4.016586669921875,-4.970343941783905,-5.838393434759974,2.1317530852526425
1684119877568556500,4.026556640625,-2.012467949658632,-8.23788092636466,0.8296388060390949
1684119877578526500,4.0365263671875,-0.9208464326620102,-9.89040731061697,-1.2598442864999175
1684119877588495600,4.04649560546875,-0.7301642863303422,-11.255767442816495,-3.1103646014019843
1684119877598465500,4.056465576171875,1.1917267358243464,-14.033456379139423,-4.883699677553772
1684119877608435700,4.066435791015625,-0.8040729876279831,-15.728997729253768,-5.772896587976813
1684119877618404600,4.076404541015625,-1.4255050965607166,-14.281667754375933,-4.796983224870265
1684119877628374500,4.08637451171875,-0.4583458620676771,-9.890376915478706,-1.101686253284663
1684119877638344400,4.096344482421875,-0.4418821089249104,-4.518606720733643,3.2841683859080075
1684119877648314400,4.106314453125,-0.33250995312333104,-1.6133078880637883,6.495258091601729
1684119877658283500,4.116283447265625,0.8127987303972244,-1.249040860673785,8.977273059767484
1684119877668253700,4.126253662109375,1.7340682107768952,-2.8403917684733866,10.166865121650694
1684119877678223600,4.1362236328125,2.117047099030018,-5.054393513345718,9.82197967107892
1684119877688192500,4.146192626953125,3.881856631159782,-7.506789003795385,7.738433859634399
1684119877698162400,4.156162353515625,6.108245563918352,-10.17308443455696,4.2812113385438915
1684119877708132600,4.166132568359375,5.5756923464000225,-12.852076849806307,1.0629483802199362
1684119877718101500,4.1761015625,2.1140788968741893,-15.532785421323775,-0.8513555478066206
1684119877728071400,4.186071533203125,-2.621532744449377,-18.305881184637546,-2.081633840343356
1684119877738041600,4.19604150390625,-5.664127001178264,-20.434712244963645,-2.4262688232854006
1684119877748011500,4.206011474609375,-6.7385600674867625,-21.792250305235385,-1.8927102281168102
1684119877757980700,4.215980712890625,-5.8248342804849145,-22.328998051834105,-0.9775877260595559
1684119877767950600,4.22595068359375,-4.246943158239126,-22.98946102542877,0.21367256129682063
1684119877777920500,4.23592041015625,-3.0652222681224344,-23.003753754675387,2.0409385496005417
1684119877787889400,4.245889404296875,-2.5210899642303586,-22.403886996340752,3.840213538172841
1684119877797859600,4.255859619140625,-2.440852059911191,-21.543360884606837,5.011292038244009
1684119877807829500,4.26582958984375,-2.5697499502420422,-20.408263798499107,5.582531252509355
1684119877817798700,4.275798583984375,-2.450086628985405,-19.557723658728598,5.625061065202951
1684119877827768600,4.2857685546875,-1.8099729081973432,-18.953239177465438,5.086019654709101
1684119877837738500,4.295738525390625,-1.2508441107034682,-18.17759499646425,4.118983717802167
1684119877847708400,4.30570849609375,-1.3364488027527928,-17.493540719401835,3.1784690003350375
1684119877857677600,4.315677490234375,-0.8864740613304078,-16.122423046588896,2.7056767162963746
1684119877867647700,4.325647705078125,-0.566680966439098,-13.256437402653694,2.6791943675622343
1684119877877617700,4.33561767578125,-1.5579611177645623,-10.73631803702116,3.192418907493353
1684119877887586600,4.345586669921875,-2.7955554324030873,-9.077802056965231,3.795446175685525
1684119877897556500,4.355556396484375,-3.3435517182469368,-7.670907552850246,4.103309178808331
1684119877907526400,4.3655263671875,-3.451109591168165,-6.2980351453244685,4.318968237747252
1684119877917495600,4.37549560546875,-3.6438030773222443,-4.96533517371118,4.513872385688126
1684119877927465500,4.385465576171875,-4.059691570878028,-3.6853403718471527,4.666039800186455
1684119877937435600,4.395435546875,-4.5910547018289565,-2.6303637011587617,4.745738775323331
1684119877947405600,4.405405517578125,-4.783798456865549,-1.7033038008093833,4.689849422580004
1684119877957374500,4.41537451171875,-4.53287723814845,-1.0363982269465923,4.440928437769413
1684119877967344600,4.4253447265625,-3.509544244480133,-0.4046399543106556,4.360202165411413
1684119877977314600,4.435314453125,-2.430615035796165,0.31181846275031566,4.53454809397012
1684119877987283500,4.445283447265625,-2.556650814694166,0.7915577894479036,4.811425299459695
1684119877997257700,4.4552578125,-3.3620600193619725,1.1622060423076153,5.229562448725104
1684119878007227600,4.4652275390625,-3.5981589320003984,1.7531956667035817,5.669513370391726
1684119878017197600,4.475197509765625,-2.881764227825403,2.0672779827326533,5.625266816908121
1684119878027166700,4.485166748046875,-2.818767965686321,2.309466444417834,5.857082353138924
1684119878037136600,4.49513671875,-3.515232811510563,2.7497487899959085,6.364590561249852
1684119878047106600,4.5051064453125,-1.0607309964314102,6.362170640626549,6.0258151179909705
1684119878057075500,4.515075439453125,6.133385850393772,12.10538053086996,4.801159926033019
1684119878067045600,4.525045654296875,9.223189017543197,17.62713670442104,3.1980759103417395
1684119878077015600,4.535015625,14.055831877076624,33.586379944109915,2.3877754265010354
1684119878086984700,4.544984619140625,4.763759877443313,44.12555277626514,-0.12343874814212322
1684119878096954600,4.55495458984375,-1.5264030732013285,41.66534690432548,-6.558675794023275
1684119878106924500,4.564924560546875,-5.301358687913417,28.902554604125022,-12.690212217158079
1684119878116894500,4.57489453125,-6.528235063052177,12.927592401778698,-9.75858768762052
1684119878126863400,4.58486328125,7.382524326223135,4.065035269993543,-4.549870458525419
1684119878136833800,4.594833740234375,9.029715194666386,-2.019773304235935,-2.970390605783462
1684119878146803700,4.6048037109375,4.35149804995209,-5.283605589079857,-2.5080723694860936
1684119878156772600,4.614772705078125,-2.0381749301061034,-5.530995711061358,-3.8421126497924325
1684119878166742500,4.624742431640625,-3.144595664566755,-2.4247271468013523,-6.764398273098468
1684119878176712400,4.63471240234375,0.3022467706762254,2.459730071121454,-10.147737227332591
1684119878186681600,4.644681640625,3.167296448935568,3.866676597684622,-12.112107208776473
1684119878196651800,4.65465185546875,7.883482966560125,2.6715245635867118,-8.341163021662831
1684119878206621700,4.66462158203125,11.178850207352637,0.47577451471984383,-3.805380709722638
1684119878216591600,4.674591552734375,4.922028531426191,-1.118524136969447,-2.1462129877597094
1684119878226560500,4.684560546875,-3.4307238057434555,-1.0248585958003997,-2.4854198081731793
1684119878236530400,4.694530517578125,-4.582748938037454,-0.24071663556694983,-3.4383851341515776
1684119878246500600,4.70450048828125,-2.0961051410272717,-0.9211462923914193,-4.2039755386501545
1684119878256469500,4.714469482421875,-0.5893854040697216,-3.379750574353337,-4.419649502897262
1684119878266439700,4.724439697265625,3.1535522934824227,-3.3809196181327104,-1.4978542934566734
1684119878276409600,4.73440966796875,1.5195593447864055,-1.8976947385311125,-1.723863773757219
1684119878286378500,4.74437841796875,1.0093874704241752,0.6503302866369486,-3.25928470454216
1684119878296348700,4.7543486328125,1.0932955876886843,3.826989899462461,-3.9839521470218893
1684119878306318600,4.764318603515625,0.7899369102478027,6.032749301168322,-6.2489166018903255
1684119878316288800,4.774288818359375,0.5840577793061733,5.620203103777766,-6.391889487063884
1684119878326257700,4.784257568359375,0.30595863080620767,3.552226617386937,-4.851224225884676
1684119878336227600,4.7942275390625,0.23921499883234498,1.109117426198721,-2.8702526537299153
1684119878346197500,4.804197509765625,0.6104743693277239,-0.32608430399000643,-1.4064555281758309
1684119878356166700,4.814166748046875,0.6764139914423227,-0.14817922164499758,-1.0245657503336667
1684119878366136600,4.824136474609375,0.8222969188436865,1.0235814154714344,-1.0657868185162545
1684119878376106500,4.8341064453125,0.8199512325003743,1.8467355356663464,-1.2413549823462962
1684119878386076700,4.84407666015625,0.6892182356968521,2.0970780777126548,-1.4754635979503392
1684119878396045600,4.854045654296875,0.5944380112841725,2.1533196048945187,-2.3225468752652407
1684119878406015700,4.864015625,0.6145803433418273,2.0046376944243907,-2.9600241100698708
1684119878415985700,4.873985595703125,0.4788423778578639,1.8255740896940231,-3.059292293551564
1684119878425954600,4.88395458984375,0.4011126569673419,1.7188129201084374,-2.5326497613817454
1684119878435924500,4.893924560546875,0.384750720231235,1.5444664070278404,-1.7819658341139555
1684119878445894400,4.903894287109375,0.11110124461650847,1.2215893746465445,-1.168155890622735
1684119878455864600,4.913864501953125,-0.17333119855821133,0.6876204451113939,-0.6454705716460943
1684119878465833700,4.923833740234375,-0.1552536900758743,0.20301146655082702,-0.302643807169795
1684119878475803600,4.9338037109375,-0.010272387689352035,-0.3907879545688629,-0.13083470361232757
1684119878485773600,4.943773681640625,0.014423369888961314,-0.7987649443477391,-0.014959084200859068
1684119878495742500,4.953742431640625,-0.10187632015347481,-0.9751496852576732,0.001678162345290184
1684119878505712400,4.96371240234375,-0.25621698703765866,-0.9830261177212,-0.17847849831879137
1684119878515682800,4.973682861328125,-0.11323036559969187,-0.765148505949974,-0.28367373376190663
1684119878525651700,4.983651611328125,-0.07550473831743001,-0.5339654224038124,-0.3571294305950403
1684119878535621600,4.99362158203125,-0.19612433738559484,-0.36795419147014613,-0.41865386661589143
1684119878545591600,5.003591552734375,-0.23362682343646882,-0.4372726423680782,-0.43556233131885524
1684119878555561500,5.0135615234375,-0.2937259028293192,-0.6901338892370462,-0.43448271938860417
1684119878565530600,5.023530517578125,-0.09009586598873139,-1.1581950531005858,-0.45090369283556936
1684119878575500500,5.03350048828125,0.18125877668708562,-1.757605884361267,-0.4260802172243595
1684119878585470700,5.043470703125,0.35721886244416234,-2.485591073086858,-0.5541746822178364
1684119878595439600,5.053439697265625,0.0027111586548388003,-3.192146520292759,-0.9684995797187089
1684119878605409500,5.063409423828125,-0.6641947074688971,-3.660264382779598,-1.555519715961814
1684119878615379500,5.07337939453125,-0.7256488547325134,-3.847783096644282,-2.1628163320362566
1684119878625348600,5.0833486328125,-0.5433095893323421,-3.6806180195003746,-2.604939337044954
1684119878635318500,5.093318603515625,0.011221651238203048,-3.2278280745267867,-2.7334093573525546
1684119878645288700,5.103288818359375,0.3527718199074268,-2.7427678450673816,-2.5401927241072055
1684119878655258600,5.113258544921875,0.3888181158006191,-2.3735604386657476,-1.9974752554491162
1684119878665227800,5.123227783203125,0.3001458528742194,-2.1322101813703775,-1.2680313923478126
1684119878675197700,5.13319775390625,0.27357275711670515,-1.985972156921029,-0.517285505759716
1684119878685167600,5.143167724609375,0.46855523099079727,-2.0038971051901577,0.21532412789613006
1684119878695136500,5.153136474609375,0.4391140324510634,-2.0030261675745247,0.7594532169178128
1684119878705106400,5.1631064453125,0.3828779120966792,-1.889154289200902,1.0174085720553994
1684119878715076600,5.17307666015625,0.4160593200780451,-1.8662778560042381,0.8047311592757701
1684119878725045800,5.183045654296875,0.29180370259508487,-1.6973264799654484,0.6800877115190028
1684119878735015700,5.193015625,0.3062508917510509,-1.4855600445508956,0.7169891629368066
1684119878744985600,5.202985595703125,0.25857611738443376,-1.1115151349902153,0.86648180526793
1684119878754955500,5.21295556640625,0.8623673556864261,-0.7640244703561068,1.152605270269513
1684119878764924400,5.22292431640625,1.5185178729094564,-0.3840829039722681,1.38725661444813
1684119878774894600,5.23289453125,2.2085703674733637,-0.05205225879848003,1.8680656162038445
1684119878784864800,5.24286474609375,2.526426356822252,0.2886503531306982,2.245603336316347
1684119878794833700,5.252833740234375,2.401284896415472,0.5601262840986252,2.130187151110172
1684119878804803600,5.262803466796875,2.2729040156960485,0.8057476428419351,1.7549588769838214
1684119878814773500,5.2727734375,2.0513092830978334,0.8273492337971925,1.086255898310244
1684119878824743400,5.282743408203125,1.8924477777883408,0.661152124902606,0.2999421469956636
1684119878834712600,5.292712646484375,1.8369756275437772,0.35617256826162336,-0.3352206733867526
1684119878844682800,5.302682861328125,1.359089381366968,-0.08717910175919533,-0.7940677264422178
1684119878854652700,5.312652587890625,0.1667605879962444,-0.6130483114689588,-0.9983107806146144
1684119878864621600,5.32262158203125,-0.9961433734476566,-1.0670078847438096,-0.9538660742104053
1684119878874591500,5.332591552734375,-1.7935715162336825,-1.3582605293273926,-0.7381830498740076
1684119878884561700,5.342561767578125,-2.0274173892483116,-1.4595944131672383,-0.39042993491142985
1684119878894530600,5.352530517578125,-1.9461270532667636,-1.3336539113372563,0.11204232485890388
1684119878904500500,5.36250048828125,-1.5725006613790988,-1.1035627146810292,0.5284355530664324
1684119878914470700,5.372470703125,-1.2144517778515815,-0.9299351635247468,1.100963638098538
1684119878924440600,5.382440673828125,-0.8143338310100138,-0.7881728231847286,1.4450132223680614
1684119878934409700,5.39240966796875,0.3348141384124756,-0.6898509806424379,1.709268846693635
1684119878944379600,5.402379638671875,1.8058873924493788,-0.43974049378633495,1.6721525834813713
1684119878954349600,5.412349609375,2.833098104333877,0.10782324585914611,1.5988520772099495
1684119878964318500,5.422318359375,2.497583708697557,0.847404764354229,1.646651062478125
1684119878974288600,5.43228857421875,0.8085188611209392,1.640710858774185,1.645138612088561
1684119878984258600,5.442258544921875,-1.201477729988098,2.322937335887551,1.7216329459652304
1684119878994223900,5.452223876953125,-2.5161212359070775,3.232077548664808,1.685420645855367
1684119879004194000,5.462194091796875,-2.9082500836908816,4.2972132097959514,1.211694295836985
1684119879014164000,5.4721640625,-2.2668729188382626,5.54229510371089,0.44152182424515485
1684119879024132900,5.4821328125,-2.036640267884731,6.548645982918143,-0.2809308647945523
1684119879034103000,5.49210302734375,-2.867256394523382,6.5161500729829065,-0.8086129691451788
1684119879044073000,5.502072998046875,-3.6857226491630075,5.008816003519296,-0.270649709276855
1684119879054043000,5.51204296875,-2.9996295597493647,2.4728403125852343,1.733584665043652
1684119879064011800,5.52201171875,-1.2975696215212345,0.3917506621211767,3.793940155036747
1684119879073982000,5.53198193359375,-0.4357984781622886,-0.8246265308350325,5.721513022220134
1684119879083951900,5.541951904296875,-0.745217551620677,-1.1570856305539607,7.3433122597753995
1684119879093921000,5.551921142578125,-1.2115421009499578,-0.8063309956878423,8.617178349626064
1684119879103891000,5.561890869140625,-1.6042881307840346,-0.1154968492269516,9.486410914906859
1684119879113860900,5.57186083984375,-1.713368098706007,0.9616951604008674,10.199745646989346
1684119879123831000,5.5818310546875,-1.9876820295788347,1.7196388495385646,10.645223807644843
1684119879133800000,5.591800048828125,-2.076003140980005,1.9011153606295585,10.789612404835223
1684119879143769900,5.601769775390625,-2.089278802138567,1.3686165036469697,10.536343746209145
1684119879153740000,5.611739990234375,-2.482817516720295,-0.14770926604568957,8.990741613149643
1684119879163709000,5.621708984375,-2.8920541511714455,-2.3738053533375263,6.455114297261834
1684119879173678800,5.631678955078125,-3.184536045289039,-4.716134787437319,4.210730273607373
1684119879183648800,5.641648681640625,-3.6362802806019783,-7.263363109269738,2.4318048301026223
1684119879193618000,5.651617919921875,-4.066649719452858,-9.769729843881725,1.1650342514708638
1684119879203588000,5.661588134765625,-4.130639376543462,-11.88846211951971,0.4117372190952301
1684119879213558000,5.67155810546875,-4.636220708245038,-14.027349294435977,0.05388415040075779
1684119879223528000,5.68152783203125,-5.387105711042881,-15.952790118026732,-0.22546704398691653
1684119879233496800,5.691496826171875,-4.428847247092426,-17.93156271883249,-0.4896621702969074
1684119879243466800,5.701466796875,-1.9144532733693718,-20.17810012112856,-0.8273176696151494
1684119879253437000,5.71143701171875,0.708914869813621,-21.92418858617544,-0.5979319908797741
1684119879263406000,5.721406005859375,3.7617443970918654,-22.403007875418663,1.373748313577473
1684119879273376000,5.7313759765625,5.721280382508039,-20.55189719340801,5.3765644432842725
1684119879283346000,5.741345947265625,5.954948853129149,-15.66226286510825,9.04778042818904
1684119879293315800,5.75131591796875,5.371773701876402,-8.9204715606153,9.16156345923543
1684119879303285000,5.761284912109375,0.779921127668023,-1.7153332612991332,4.198063099735975
1684119879313255000,5.7712548828125,-6.288869842094183,5.194421577239036,-1.6512702467113731
1684119879323225000,5.78122509765625,-4.300039957654476,13.153217851197718,-6.319166780680417
1684119879333194000,5.791194091796875,2.3273417083263395,19.057001165235043,-13.687061693048477
1684119879343164000,5.801163818359375,2.4913056513413787,20.979517041289807,-22.25099243661165
1684119879353133800,5.8111337890625,-2.9528298146516083,17.143213370037078,-31.0560407977581
1684119879363103000,5.82110302734375,-2.0983225248157975,4.994694539186358,-36.0219984872818
1684119879373073000,5.831072998046875,3.3381896066918966,-3.3634476743280888,-21.081476363551616
1684119879383042800,5.841042724609375,5.215501190146804,-3.410802715221047,-3.7361785786807533
1684119879393013000,5.851012939453125,2.7702339441418644,-5.6324172731846565,4.190992138436436
1684119879402982000,5.86098193359375,0.19686901827305553,-7.557878555041551,10.392433287924527
1684119879412952000,5.8709521484375,0.9973124172270298,-6.348690981328487,12.990601523399352
1684119879422922000,5.880921875,4.985466692113876,-1.186169686219096,6.8966048495858905
1684119879432891000,5.890890869140625,4.355810067932308,3.690171445265412,-2.71432968609035
1684119879442860800,5.90086083984375,0.6440098514437675,7.479685892814397,-6.6532023359358305
1684119879452831000,5.9108310546875,-0.6997159565746783,9.66630863237381,-8.448990359175205
1684119879462800100,5.920800048828125,-0.9272259045660495,9.59107306638658,-8.90255128852129
1684119879472770000,5.93077001953125,-1.4226763028755782,7.169879938930273,-7.797417379000782
1684119879482740000,5.940739990234375,-1.3900322166413068,4.58058474574089,-5.125251010379195
1684119879492710000,5.9507099609375,-0.8636205706179142,2.4687878223240376,-2.808665089344978
1684119879502678800,5.9606787109375,0.03831161047667265,0.7595511243343352,-1.2227175018936396
1684119879512648700,5.970648681640625,-0.16302198598980902,-0.46441783892512317,0.13388941500782967
1684119879522619100,5.980619140625,-0.309803615796566,-0.8384890519708394,1.396070912283659
1684119879532588000,5.990588134765625,0.3231307148814201,-0.4334077836334705,2.471304189059138
1684119879542558000,6.000557861328125,1.0620765658214688,0.21342647758126257,2.916802223458886
1684119879552528000,6.01052783203125,1.024771355908364,0.8627753519654273,2.1535195113807917
1684119879562497000,6.0204970703125,1.1695908918619156,1.3399445359140634,0.38858138443529605
1684119879572467000,6.030467041015625,1.5485319029010831,1.6132418370902537,-1.9997721342146395
1684119879582437000,6.04043701171875,2.2408232624329627,1.8155431095451116,-4.234973903504014
1684119879592407000,6.050406982421875,2.649401579105854,2.040499281400442,-6.355054671141505
1684119879602376000,6.0603759765625,3.360115899556875,2.408349427974224,-8.641881998249888
1684119879612345900,6.070345947265625,3.8795734886586666,2.587876558563113,-11.197695193076132
1684119879622315800,6.080315673828125,4.360805684262514,2.6111849534362555,-13.492583077043294
1684119879632285000,6.090284912109375,4.468550604188442,2.710889190247655,-15.04173793414831
1684119879642254800,6.1002548828125,4.411378518158197,3.457950835365057,-15.493127949196099
1684119879652225000,6.11022509765625,4.200723843377828,4.786149988427758,-14.841555553543566
1684119879662194000,6.12019384765625,3.6996693414509294,6.0630883253306145,-13.829217416620253
1684119879672163800,6.130163818359375,3.6321219918787477,8.070186272388696,-12.51303428004384
1684119879682134000,6.140134033203125,3.127728700917959,10.471890855520963,-10.933329970896244
1684119879692104000,6.15010400390625,2.804858682799339,12.121854695808887,-9.713390117022394
1684119879702072800,6.16007275390625,3.5420834090352056,13.089759816765785,-8.584448046413064
1684119879712042800,6.170042724609375,3.975252707737684,13.20420686467886,-7.375141814756393
1684119879722013000,6.180012939453125,3.049122197192907,11.96996083755493,-5.944764728245139
1684119879731982000,6.189982177734375,0.7313397598505019,10.341093561309576,-4.703159570530056
1684119879741952000,6.199951904296875,-2.855252652996778,8.45811825300455,-4.103457062846422
1684119879751922000,6.209921875,-5.125924964118004,8.935133123174309,-3.711443950396776
1684119879761891800,6.219891845703125,-5.162222604423761,10.348166276174783,-2.9338644174188375
1684119879771860700,6.22986083984375,-4.189430880469083,11.904889522707462,-0.06820873609036207
1684119879781831000,6.239830810546875,-2.075156168761849,14.464583358359336,4.758236730107665
1684119879791801000,6.249801025390625,1.706726760995388,13.020991985487937,11.136274801951647
1684119879801770000,6.25977001953125,7.929979929319024,5.118092955318093,16.645727958768607
1684119879811740000,6.269739990234375,13.013132504159211,0.10087211154699324,18.77676851183772
1684119879821709800,6.279709716796875,10.412484726828335,0.724698422139883,17.967602000463007
1684119879831679000,6.289678955078125,1.521671806895733,-0.13700491667985915,14.372937340319156
1684119879841649000,6.29964892578125,-9.139038323694468,-4.171292581710219,8.06507053681016
1684119879851619000,6.309619140625,-13.64485219835043,-5.55551640433371,2.3923893500372766
1684119879861589000,6.319589111328125,-12.0773293253839,-6.389740200075507,-0.7823436786398291
1684119879871558000,6.329557861328125,-6.826434750294685,-7.637547719562053,-3.09282309949249
1684119879881527800,6.33952783203125,0.2186053049912676,-8.22137402819991,-5.602465202513337
1684119879891497700,6.349497802734375,5.822018054020404,-7.6791487269729375,-7.982403944039344
1684119879901467000,6.359466796875,4.858499185323715,-6.77442749968171,-9.186859228533505
1684119879911437000,6.36943701171875,-0.31599837878346443,-6.286216697236895,-9.316928792992234
1684119879921407000,6.379406982421875,-4.758738834410906,-6.009632044953108,-8.692602716183663
1684119879931377000,6.389376953125,-7.1764616554081435,-4.761761981624365,-7.434145207867026
1684119879941346000,6.399345947265625,-7.118502802914381,-1.0919728146523238,-4.023124173720181
1684119879951316000,6.40931591796875,-5.064799172025919,2.8521196156680584,-0.1089566338032484
1684119879961286000,6.419285888671875,-3.5989912911713122,4.928514970836043,2.2420573342725634
1684119879971254800,6.4292548828125,-4.574726082840562,5.893209313052893,3.983648780161142
1684119879981225000,6.439224853515625,-5.951231293910741,5.8846788005948065,5.759263783943653
1684119879991195000,6.44919482421875,-5.470983433169126,4.213039135071635,7.374608730792999
1684119880001164500,6.45916455078125,-3.4662969311669465,1.0904273387759924,8.1806983189404
1684119880011134500,6.469134521484375,-1.2548328880786894,-2.305828380176425,9.019458004546165
1684119880021104600,6.479104736328125,-0.05316109682321548,-5.932110998377204,10.995560509359835
1684119880031074600,6.489074462890625,-0.5978340834632515,-9.872677592658995,13.585721963989734
1684119880041043500,6.49904345703125,-2.6272055293887853,-14.09892283078432,16.69135924460888
1684119880051013400,6.509013427734375,-9.572430909758806,-21.068310592508315,19.180176294004916
1684119880060983300,6.5189833984375,-19.93972975642681,-29.759169095373153,19.967861625933647
1684119880070952400,6.528952392578125,-24.882937854003906,-42.084570679783816,18.084321669483185
1684119880080922400,6.53892236328125,-11.511174282515048,-45.9431165779829,15.943316187238691
1684119880090892500,6.548892578125,-5.397275222879648,-41.659323990774155,11.972917349272965
1684119880100862500,6.558862548828125,-4.8734214446455235,-29.132498501265047,6.0914843987315885
1684119880110831600,6.56883154296875,-4.32604884365797,-16.256152302598952,1.2685025169908999
1684119880120801500,6.578801513671875,-8.485148883271217,-11.866470067942142,-1.357125387817621
1684119880130771500,6.588771484375,-10.773757833099365,-11.994369302624463,-2.729145562428236
1684119880140740400,6.598740234375,-12.544193972939253,-13.235772215765714,-2.5058926873594523
1684119880150710500,6.60871044921875,-12.316961088323593,-13.286229314327239,0.5109755919605493
1684119880160680400,6.618680419921875,-11.989112112748622,-13.645885633051394,6.929445627436041
1684119880170649600,6.628649658203125,-11.797718603277206,-15.111643245023489,12.71428633570671
1684119880180619500,6.63861962890625,-10.005357047355174,-16.015463724082707,16.05289533685446
1684119880190589400,6.64858935546875,-7.990694218000769,-15.882384456413984,18.24733079599142
1684119880200559400,6.658559326171875,-4.220432460193336,-14.951810410463809,18.344639662098885
1684119880210528300,6.6685283203125,2.2975258312553164,-13.709540066838263,17.169721437734363
1684119880220498700,6.678498779296875,6.835747937563061,-13.725425033712387,12.127767719244956
1684119880230468600,6.688468505859375,5.823138582482934,-14.569839384078978,6.1210366564303635
1684119880240437500,6.6984375,3.7351249779745936,-14.464448918324708,3.6019647540241477
1684119880250407400,6.708407470703125,0.6197929634235799,-13.39093121329546,2.0005182764068246
1684119880260377300,6.71837744140625,-5.1566579560339445,-10.812383039569854,1.0925091134861111
1684119880270347300,6.72834716796875,-8.18237823485136,-6.501319583597779,0.6233376502931117
1684119880280316400,6.73831640625,-5.460917966228723,-3.4589977140694854,0.29154899718165395
1684119880290286600,6.74828662109375,-3.7563515981376168,-0.13939210407733915,-0.31376725873053074
1684119880300256500,6.758256591796875,-4.099765222591161,3.458023316079378,-0.334117680580914
1684119880310225400,6.768225341796875,-7.31569126240015,6.316735169619322,0.26515885677561163
1684119880320195300,6.7781953125,-10.629195048385858,10.549729297482967,1.6270362614259122
1684119880330165500,6.78816552734375,-11.821492277574539,16.669575282824038,3.8990667091578244
1684119880340134400,6.798134521484375,-10.107474190527201,21.517288870239256,5.879127596208453
1684119880350104600,6.8081044921875,-6.822975549751519,20.477012925076483,6.724275521546602
1684119880360074500,6.818074462890625,-3.028586774164438,10.453870045661926,4.779427986696362
1684119880370044400,6.82804443359375,1.207630407398939,1.2284317878872155,2.6019565218418834
1684119880380013600,6.838013671875,2.6808874352157113,-3.750739603474736,2.0406199851706623
1684119880389983500,6.8479833984375,1.2025567573964595,-6.8352855807483195,2.3459122610226273
1684119880399953400,6.857953369140625,6.515834431162476,-9.114818659195304,3.2867718464046716
1684119880409922300,6.86792236328125,19.68791305017471,-5.224032871648669,4.806911621427536
1684119880419892500,6.877892578125,16.314781017178294,9.000144232267141,7.601105117827654
1684119880429862400,6.8878623046875,3.3347268990173933,24.83996380467415,7.720310173922777
1684119880439832600,6.89783251953125,-9.766936413770914,34.74384785197973,5.431066433322429
1684119880449801500,6.907801513671875,-4.736488424158096,49.77739312732219,3.303619520831108
1684119880459771400,6.917771484375,2.7046494190752504,49.22994863014221,-5.222382766354084
1684119880469741600,6.927741455078125,-12.322572498464584,32.42146288927793,-9.980907665753364
1684119880479710500,6.93771044921875,-5.120879371166229,18.849084390985965,-18.89299835151434
1684119880489680600,6.9476806640625,0.4567852982200682,4.2303316306561225,-27.20806773149967
1684119880499650600,6.957650634765625,9.7151127030313,-7.773015343672037,-28.574567681384085
1684119880509619500,6.967619384765625,-1.281675010035932,-10.675986025655268,-20.61293998339176
1684119880519589400,6.97758935546875,-6.394173798608779,-8.276414947420358,-5.722243674582242
1684119880529559300,6.987559326171875,-4.170115062363445,-7.375776021006703,6.902981983402371
1684119880539529500,6.997529541015625,1.224326106134057,-7.395014389961958,17.07472377117872
1684119880549498600,7.00749853515625,5.5942719591856,-7.722676318532228,20.74754134606123
1684119880559468500,7.017468505859375,10.05465562353134,-1.4703198053210973,8.47840993040502
1684119880569438500,7.0274384765625,7.294505851030349,11.584155347573757,-8.915913458919524
1684119880579407400,7.037407470703125,-1.128695986893773,18.998025244653224,-13.09099900317192
1684119880589377300,7.047377197265625,-0.8014861860051751,17.387909430629016,-13.108109127926825
1684119880599347500,7.057347412109375,0.6037687342092395,8.313671788147092,-10.578914475435019
1684119880609317600,7.067317626953125,0.10691139171123504,-2.121439196509123,-6.667476945003867
1684119880619286500,7.07728662109375,0.6852738819852471,-9.60869698588252,-2.9311411299347876
1684119880629256400,7.08725634765625,1.6064648903012275,-10.90745201779604,-0.9389461529761552
1684119880639226400,7.097226318359375,-0.8588643160015345,-7.703003065291047,-0.3663257134854793
1684119880649195500,7.107195556640625,-0.83395608471632,-4.078642939585447,-2.6777199110954997
1684119880659165400,7.11716552734375,-0.9520242457360029,-2.8632810611516235,-5.820789973530173
1684119880669135600,7.127135498046875,-0.4200245704472065,-2.8104414513677356,-5.9067485935837025
1684119880679105500,7.13710546875,1.1681313407033682,-1.2335697352975605,-5.521774878251552
1684119880689074400,7.147074462890625,1.4422829206213355,1.8905302537292241,-5.181776030677557
1684119880699044400,7.15704443359375,1.723961388912797,2.8807343002557753,-4.891980599164962
1684119880709014500,7.1670146484375,1.6037100386351346,1.1920102289408445,-5.739326326808333
1684119880718983400,7.1769833984375,1.0540110405266285,-0.2680979789674282,-6.0122454423218965
1684119880728953300,7.186953369140625,0.5958475858211517,-0.050291094344854355,-4.55647204874754
1684119880738923500,7.196923583984375,0.6244061563074589,0.5611585497558117,-2.7836300168097017
1684119880748892700,7.206892578125,0.8020435276269913,0.7477747618228197,-1.8888094212859867
1684119880758862600,7.216862548828125,0.6428603891476988,0.9699012632101773,-1.7436270433694123
1684119880768832500,7.22683251953125,1.071150975897908,1.2893641032338141,-2.100671133768558
1684119880778802400,7.236802490234375,1.3133265781015158,1.5286235257297753,-2.298108599579334
1684119880788771300,7.246771240234375,1.3856775285631417,1.8816987124979494,-2.1939117275238034
1684119880798741500,7.256741455078125,1.4743006916508077,2.253631744471192,-2.38765559951365
1684119880808711400,7.26671142578125,1.2978399628952144,2.370226910328865,-2.619939922299981
1684119880818680600,7.2766806640625,1.0096551814496517,2.373237198060751,-2.7105016522347927
1684119880828650500,7.286650390625,0.7302610247030854,2.359505025306344,-2.5878070004582403
1684119880838620400,7.296620361328125,0.5604553699225187,2.200125195211172,-2.308776124066114
1684119880848590300,7.30659033203125,0.2735477688059211,1.830986762392521,-1.8074807991206645
1684119880858559500,7.3165595703125,-0.0640855186805129,1.2200105810225008,-1.104230823200941
1684119880868529700,7.32652978515625,-0.1984133251056075,0.43895723445415497,-0.22597966968417166
1684119880878499600,7.33649951171875,-0.0180512049973011,-0.40880993347167965,0.55483928360641
1684119880888468500,7.346468505859375,0.14432166943401098,-1.1093249314695597,1.046382445344329
1684119880898438400,7.3564384765625,0.3189908385977149,-1.5451228251099585,1.2077473117768764
1684119880908408300,7.366408203125,0.39218262379765506,-1.8540403057217596,1.2116712072223423
1684119880918378200,7.376378173828125,0.5349813214480876,-1.8534131137341259,1.1749456968933343
1684119880928347400,7.386347412109375,0.6742538907989859,-1.4714485170900822,1.0224491965711116
1684119880938317600,7.396317626953125,0.8207531965330243,-0.9187953453511,0.7070341706335544
1684119880948287500,7.40628759765625,0.46983197292834517,-0.3853279355973005,0.24280688584446905
1684119880958256400,7.41625634765625,0.5548107881642877,-0.20504209559559822,-0.16224048022329807
1684119880968226600,7.4262265625,0.6118903736054897,-0.2876537433087826,-0.5040279647797345
1684119880978196500,7.436196533203125,0.8380965455219149,-0.7547779185831547,-0.671323974826932
1684119880988165400,7.446165283203125,0.9270083162926137,-1.529019247049093,-0.7271212653726339
1684119880998134500,7.456134521484375,0.5742682066977024,-2.400796236115694,-0.8117904301375151
1684119881008104400,7.4661044921875,0.03579480535015463,-3.472340595245361,-1.1340727114960552
1684119881018074600,7.47607470703125,-0.12092501175552606,-4.246820408642292,-1.5034507982894778
1684119881028043800,7.486043701171875,-0.2209916521385312,-4.61876220844388,-1.850516515509784
1684119881038013700,7.496013671875,0.4134663809753954,-4.7422903884351255,-1.9263374801695345
1684119881047983600,7.505983642578125,0.8983204203382134,-4.545906231069565,-1.591014515452087
1684119881057952800,7.515952880859375,1.0375791072942315,-4.161564968422055,-1.02891430093199
1684119881067922700,7.525922607421875,1.0502746304772794,-3.8916789369940754,-0.4000795145273208
1684119881077892900,7.535892822265625,1.0810136137425899,-3.597296177691221,0.1165399285390973
1684119881087862800,7.54586279296875,1.0859655370615422,-3.1268051563322543,0.6798498111099004
1684119881097831700,7.555831787109375,1.02716614209041,-2.4927064580500122,0.9756170105084776
1684119881107801600,7.565801513671875,0.9212461725693195,-1.7274685202509164,1.025589248162508
1684119881117771500,7.575771484375,0.8346259468019008,-0.9910480961352586,0.946063291504979
1684119881127740700,7.58574072265625,0.7518108124058693,-0.42200843774080277,0.9098010147735476
1684119881137710600,7.595710693359375,0.48707989871874446,-0.1475993759304285,0.9156810127228497
1684119881147680800,7.6056806640625,0.18954642030000685,-0.150265380269289,0.9412459543511271
1684119881157650700,7.615650634765625,-0.09986205772161483,-0.27693594993948933,1.1875792607560753
1684119881167619600,7.62561962890625,-0.36246092781610784,-0.52410395360291,1.4944322100535035
1684119881177589800,7.63558984375,-0.9197160403925925,-0.9395978948831558,1.91657362652421
1684119881187559700,7.6455595703125,-1.3777555033922195,-1.497956000265479,2.485159695932269
1684119881197528600,7.655528564453125,-1.1080023045636713,-2.191182594820857,2.988315261791646
1684119881207498800,7.665498779296875,-0.2781727982580662,-2.837467989981174,3.5641093628823755
1684119881217468700,7.67546875,1.1852656500514596,-3.3212411022394894,4.0171933223664755
1684119881227437800,7.685437744140625,1.8689863843105732,-3.277643368053436,3.8325858197733758
1684119881237407700,7.69540771484375,1.050187098324299,-2.4707108993411064,2.7735589969113468
1684119881247377700,7.705377685546875,-0.33548049336671826,-1.3289689683914183,1.5706731536909937
1684119881257347600,7.71534765625,-1.6369313402354717,-0.1524234350860119,0.7510422391861676
1684119881267316500,7.72531640625,-2.7766251064836975,0.9370973102390766,0.08105360461622477
1684119881277286700,7.73528662109375,-3.7539761011779307,1.8088164316385984,-0.6109666828893124
1684119881287256800,7.7452568359375,-3.831314192402363,2.1742770527273416,-1.2846404357127845
1684119881297225700,7.755225830078125,-2.9172751016676424,1.940490508684516,-1.9230042440935968
1684119881307195600,7.765195556640625,-1.5100480045974254,1.0155845714986325,-2.4293305489435792
1684119881317165600,7.77516552734375,-0.020513284261897205,-0.31784955960810185,-2.580754451598227
1684119881327134700,7.785134765625,0.8680967661838978,-1.8198627263098954,-2.449354807579517
1684119881337104600,7.795104736328125,0.9359737861018628,-3.1110750877588984,-2.1147399911314246
1684119881347074800,7.80507470703125,0.7492728183608501,-3.9552088676184414,-1.6758566986963153
1684119881357044700,7.815044677734375,0.5356885929346085,-4.088566367706656,-1.1108457112960517
1684119881367013600,7.825013671875,0.4406546860218048,-3.56357803248465,-0.45911593312472104
1684119881376983600,7.834983642578125,0.36201318404860794,-2.3154086939483878,0.051983577476441854
1684119881386953500,7.844953369140625,-0.22741299042291938,-0.4536556218922138,0.4026620783664286
1684119881396922600,7.854922607421875,-1.3950269561886786,1.2616565966188906,0.8022405115038156
1684119881406892800,7.864892822265625,-2.303278111171722,2.039461170524359,1.4130822528392075
1684119881416862700,7.87486279296875,-2.7065982150554655,1.9605460392415521,2.2362615074753758
1684119881426832600,7.88483251953125,-2.4974971994578836,1.8898072001516817,3.230457546247542
1684119881436801800,7.8948017578125,-1.7512942169964312,2.681839621374011,4.127637564378976
1684119881446771700,7.904771728515625,-0.5007470434129238,4.475464913621544,4.540217079517245
1684119881456741600,7.91474169921875,0.40969847980923946,6.485255753025412,3.9724619079753754
1684119881466710500,7.92471044921875,0.06902618995308876,7.672271242418884,2.0815537608444687
1684119881476680700,7.9346806640625,-0.7849369100034237,7.638575309044122,-0.3781827400177717
1684119881486650600,7.944650634765625,-1.0446177006941288,5.499890963223576,-2.712727219329774
1684119881496620500,7.95462060546875,-0.24262919119000434,2.144412075817585,-4.400721807326376
1684119881506589700,7.964589599609375,0.8881902906637639,-0.29158056136369703,-5.197685547471046
1684119881516559600,7.9745595703125,1.4340730184197426,-1.7612825270473955,-4.884794487053155
1684119881526529800,7.98452978515625,1.5222937381863593,-2.2701912496060133,-3.479407172630727
1684119881536498700,7.994498779296875,1.595895711622387,-2.0008634365826845,-1.840087768214941
1684119881546468600,8.004468505859375,1.4537176300883292,-1.5184838245093821,-0.6941323112234473
1684119881556438800,8.014438720703126,0.9088227443259209,-1.230663492462039,0.24924305637180805
1684119881566407700,8.02440771484375,0.43386597572974855,-1.102733278119564,1.2211997908070682
1684119881576377600,8.034377685546875,0.3682372461952269,-0.8516238433539867,2.2191642422020434
1684119881586347500,8.044347412109374,0.5620037684082985,-0.3116378454864025,3.125712977181375
1684119881596317700,8.054317626953125,0.6705939069867134,0.43280923321843146,4.059475882300735
1684119881606286800,8.064286865234376,0.2862193265914917,1.2299001068741082,5.045106629562378
1684119881616256800,8.0742568359375,-0.23969255321621893,1.8770272135555743,5.955193183279037
1684119881626226700,8.084226806640626,-0.436043977355957,1.791304740345478,6.3556894619137045
1684119881636195600,8.094195556640624,-0.3358545873761177,0.7332026311129332,5.404150369346142
1684119881646165500,8.10416552734375,0.008237082469463348,-0.6639081456124782,3.29331176956743
1684119881656135700,8.1141357421875,0.0738229227103293,-1.719578059262037,1.6025629144266247
1684119881666105900,8.12410595703125,-0.26554814835414287,-2.423703648972511,0.4895423433095216
1684119881676074800,8.13407470703125,-0.5204254112206399,-2.7173984260112047,-0.304247735235095
1684119881686044700,8.144044677734374,-0.5071300955135375,-2.430093057748675,-0.7147101120889187
1684119881696014600,8.1540146484375,-0.2705436185538769,-1.6555010161489248,-0.8230787168711423
1684119881705983700,8.163983642578126,-0.07151508415937423,-0.7448825475126505,-0.6805541599869728
1684119881715953700,8.17395361328125,0.00950308381728828,0.11442542060315608,-0.39021117759421464
1684119881725923800,8.183923828125,0.04546411257982254,0.7711375172317028,0.01469984874278307
1684119881735893800,8.193893798828125,0.040328503257036206,1.1241788017302752,0.6739657215073704
1684119881745862700,8.203862548828125,-0.26599947231821713,1.1971779869675636,1.4571857445903122
1684119881755832600,8.21383251953125,-0.41735922369547185,1.0623451536297797,2.1220323400966823
1684119881765802500,8.223802490234375,-0.14020933874435723,0.8449655545085668,2.420086773649603
1684119881775771600,8.233771728515626,0.3790975167751312,0.6005646774709225,2.3440724783748386
1684119881785741600,8.243741455078125,0.6880325330436229,0.49845396403968334,2.1836646204061805
1684119881795711700,8.253711669921875,0.6508160973925143,0.5299608629375696,2.146348012316227
1684119881805680600,8.2636806640625,0.5322481701571494,0.5697054288268089,2.190556718007475
1684119881815650800,8.27365087890625,0.579602516930364,0.5064087224364281,2.311774575229734
1684119881825620700,8.283620849609376,0.7640064232427627,0.5479390026986599,2.4178993466079235
1684119881835590700,8.293590576171875,0.9277684139449148,0.6685632779419421,2.3177970503896472
1684119881845559600,8.3035595703125,0.840127466827631,0.874113323059678,2.0115520038574934
1684119881855529700,8.31352978515625,0.4350164609391242,1.1910744093954562,1.4139565514557062
1684119881865499600,8.323499755859375,-0.10284425187017768,1.451933084759116,0.7697127451255917
1684119881875468800,8.33346875,-0.3556172724664211,1.5707020875245332,0.2377601238489151
1684119881885438700,8.343438720703125,-0.3097241573521867,1.461463129648566,-0.17392887219041586
1684119881895408600,8.35340869140625,-0.0857855650415644,1.2393126628637312,-0.3173303580395877
1684119881905378600,8.363378662109374,0.13935356216523795,0.9908259778171777,-0.26395328037813304
1684119881915347500,8.373347412109375,0.13889175333976744,0.7431558698505163,-0.14281287230625747
1684119881925318000,8.38331787109375,-0.09244217338655143,0.3267150031089783,-0.11875453584864736
1684119881935287800,8.393287841796875,-0.16244097123146056,-0.3332657399266958,-0.2780693378835916
1684119881945256700,8.403256591796875,0.11898531239721924,-1.0417255594491959,-0.47268137101009483
1684119881955226600,8.4132265625,0.43079610329773277,-1.5227911663144826,-0.5365468171991408
1684119881965196500,8.423196533203125,0.680579878950119,-1.6308464673638343,-0.4120439469568431
1684119881975166500,8.43316650390625,0.6133154379725456,-1.357414726153016,-0.011335340745747088
1684119881985135900,8.443135986328125,0.2961000115495175,-0.857158681127429,0.5870736199960113
1684119881995105800,8.453105712890626,0.03386248558070511,-0.44296939270496366,1.139118012186885
1684119882005075500,8.463075439453124,-0.1324503221154213,-0.2166752502441406,1.4896977288775146
1684119882015044400,8.47304443359375,-0.09358199107144027,-0.16050620377659797,1.605898780851066
1684119882025014500,8.4830146484375,0.23263730094246565,-0.2245750635832548,1.4819873006306588
1684119882034984400,8.492984375,0.4530488151054829,-0.3803741125822067,1.0927231946282088
1684119882044953300,8.502953369140625,0.32159576039910315,-0.5249795673936605,0.7014027406178415
1684119882054923300,8.51292333984375,0.1435140976444818,-0.665693275463581,0.45747167304903263
1684119882064893200,8.52289306640625,0.06286883636713028,-0.6865946091949939,0.2653226690351963
1684119882074863400,8.53286328125,0.09304770153164862,-0.42113165490627286,0.135428315012902
1684119882084832500,8.54283251953125,0.020281703995727002,0.08219079195261002,0.061071869947761294
1684119882094802400,8.552802490234376,-0.0017804171433672307,0.522009611672163,0.052081631023436784
1684119882104772400,8.5627724609375,0.057449167672265315,0.7083785709798336,0.07143938857465983
1684119882114741200,8.5727412109375,0.07392799052000046,0.734353554713726,0.24206045139133928
1684119882124711200,8.582711181640626,0.13018820413602517,0.8302952241212129,0.5627447960339487
1684119882134681300,8.592681396484375,0.3197240847757086,1.0377332749426365,0.8474033030495047
1684119882144651500,8.602651611328126,0.6608370676040649,1.3057798159837721,0.7579134401299059
1684119882154620400,8.612620361328124,0.7703753006875514,1.5950082612633705,0.32723230498135086
1684119882164590300,8.62259033203125,0.4004945250689983,1.590191800892353,-0.1330545716188848
1684119882174560300,8.632560302734374,-0.11304068824648857,0.8513163848400116,-0.617936083510518
1684119882184529400,8.642529296875,-0.48376902060508725,-0.424061278617382,-0.9365297394841909
1684119882194499300,8.652499267578126,-0.5055319761345163,-1.4380617957949637,-0.8062700592808425
1684119882204469500,8.662469482421875,-0.27318099958645176,-1.7827993623286484,-0.46069735709726806
1684119882214438400,8.6724384765625,-0.14857611200809479,-1.4470949970781801,-0.1307822427727282
1684119882224408300,8.682408203125,-0.22733808028949423,-0.8000526460707187,0.05192585593983531
1684119882234378200,8.692378173828125,-0.4566670786678791,-0.16019231552183627,0.0666049541555345
1684119882244348200,8.70234814453125,-0.9156628925442695,0.29893384673595425,0.044185763207077976
1684119882254317300,8.7123173828125,-1.1662345671713352,0.4469242678105831,0.05812149570956826
1684119882264287200,8.722287353515625,-0.8859247568845748,0.2912017911791801,0.038412586633116
1684119882274257400,8.73225732421875,-0.4019008847355842,-0.13113631690740585,-0.02715571795105934
1684119882284226300,8.742226318359375,-0.0025976152777671814,-0.5908633676677942,-0.06690101449266075
1684119882294196500,8.752196533203126,0.10853400621069595,-0.6860048266083002,-0.030612288145720958
1684119882304166400,8.76216650390625,-0.017995100029045714,-0.14699556481838225,0.018594079702347516
1684119882314136300,8.77213623046875,-0.1831692864835262,0.6217290460526943,0.04573606138899922
1684119882324105200,8.782105224609374,-0.16440730286836625,1.059446509578824,0.02776128262877464
1684119882334075400,8.792075439453125,-0.027343915733229366,0.9060247111052274,-0.06689867640510201
1684119882344045300,8.80204541015625,-0.03792610002411529,0.4593745840609073,-0.08832856405526399
1684119882354014500,8.812014404296875,-0.2379857492983341,0.18563830694556235,-0.07044716266691685
1684119882363984400,8.821984375,-0.38124738828539845,0.13506722661554812,-0.042607992496341465
1684119882373954300,8.831954345703124,-0.30643561893450094,0.12324059522151946,-0.09343684697970747
1684119882383924200,8.84192431640625,-0.32390228377580643,0.011800327908992766,-0.21930004578977821
1684119882393893000,8.85189306640625,-0.5131424146056175,-0.09669920977652072,-0.4039171929940581
1684119882403863600,8.861863525390625,-0.7126070023298263,-0.24601415745317934,-0.6949902432270347
1684119882413833500,8.87183349609375,-0.8846177659392357,-0.4265682930022478,-1.0686898464813828
1684119882423802400,8.88180224609375,-0.958726958245039,-0.49446226405501364,-1.1754736662901937
1684119882433772300,8.891772216796875,-1.03619715141654,-0.3987865521073341,-0.9462187743276357
1684119882443742200,8.9017421875,-1.0658803420186043,-0.22150690818428992,-0.6266954362884164
1684119882453711400,8.91171142578125,-0.9488906238853931,-0.04959551329612732,-0.4700945693872869
1684119882463681500,8.921681640625,-0.774292766392231,0.10748889933824539,-0.45697804431319233
1684119882473651500,8.9316513671875,-0.5497054278492928,0.2560650113463402,-0.5207946829244494
1684119882483621400,8.941621337890625,-0.5622761556088924,0.2598679107606411,-0.6950396353267133
1684119882493590300,8.95159033203125,-0.42711482096910475,0.17406126639842986,-0.9053804218523204
1684119882503560200,8.961560302734375,-0.21987958097709343,0.08855565080940724,-1.0559481460690499
1684119882513530400,8.9715302734375,-0.19324995099306105,-0.02916296612024307,-1.0627500811688602
1684119882523499300,8.981499267578124,-0.2130453693091869,-0.1480874517083168,-0.9370046635195612
1684119882533469400,8.991469482421875,-0.22693596576200797,-0.24199556946158407,-0.7019929615959525
1684119882543439400,9.001439453125,-0.1241711906025186,-0.39776597688794135,-0.34395474559292194
1684119882553409300,9.0114091796875,-0.18684362761471418,-0.5046405437201261,0.03323226138576865
1684119882563378400,9.02137841796875,-0.3268307749757543,-0.6231868436455726,0.37577567887604235
1684119882573348400,9.031348388671875,-0.006786299139261246,-0.8927455428153276,0.6396563324093818
1684119882583318300,9.041318359375,0.012523892943188548,-1.1612351514488457,0.8868722668677568
1684119882593287200,9.051287109375,-0.05146839449591934,-1.266984513643384,1.08465956902951
1684119882603257300,9.06125732421875,-0.09539170737452804,-1.158612401729822,1.1770979064911604
1684119882613227300,9.071227294921876,-0.635152006727457,-1.0001005866408348,1.157902207633853
1684119882623197400,9.081197509765625,-1.6362041950047015,-0.8781237277448177,0.9173612208947539
1684119882633166300,9.091166259765625,-2.396213584500551,-0.7958218766331672,0.687752547058463
1684119882643136300,9.10113623046875,-2.5204069504022595,-0.7026426576763392,0.5832166523069143
1684119882653106400,9.1111064453125,-1.6149357815265655,-0.6677922935694456,0.558768732009828
1684119882663075300,9.121075439453126,-0.23987850424237547,-0.5267220271468163,0.6486945021286606
1684119882673045500,9.13104541015625,-0.17353059358783066,-0.19389000246226787,1.035792662268877
1684119882683015400,9.141015380859375,-0.9445544943772256,0.2658499077796936,1.5135703335046766
1684119882692984300,9.150984375,-1.0472760331831872,0.9458101935267448,1.5885528015136718
1684119882702954200,9.160954345703125,-0.49104514908790586,1.783801817369461,0.9371621921688318
1684119882712924200,9.170924072265626,0.18222016906514762,2.2967396493136882,-0.15916618734449148
1684119882722894300,9.180894287109375,0.5518411977689713,2.1917823142796755,-1.106338316874206
1684119882732863500,9.190863525390625,0.6356243004143237,1.6407523598283529,-1.7236609446614979
1684119882742833400,9.20083349609375,0.6679052524246275,1.2224468682587146,-1.8640423520371316
1684119882752803300,9.21080322265625,0.5928267766952514,1.080269517377019,-1.549937531915307
1684119882762772200,9.220772216796876,1.1176666433572768,1.2281693375587464,-1.3218316638574004
1684119882772742100,9.2307421875,2.293697797399759,1.5732546946167945,-1.551453489436209
1684119882782712600,9.240712646484376,3.335198900443315,1.8205138836950063,-1.8608903177469969
1684119882792682500,9.2506826171875,3.493652263343334,1.5964251423239706,-1.737247571465373
1684119882802651400,9.2606513671875,2.9220775335133076,1.1802718603521585,-0.7988803874209522
1684119882812621300,9.270621337890624,2.074417917615175,0.8164327029854058,0.3847644564956426
1684119882822591200,9.28059130859375,1.2353975352466107,0.4620557859688997,1.1160969098225235
1684119882832560400,9.290560302734375,0.48664698719419536,0.12109481536448001,1.3274933428809046
1684119882842530300,9.3005302734375,0.18672537152990698,-0.13526128788292408,1.2093272744446992
1684119882852500500,9.31050048828125,0.37750411010384555,-0.2098661547511816,0.9719058810308575
1684119882862470400,9.320470458984374,0.8796222957395017,-0.08215981229245663,0.8017825386032462
1684119882872439300,9.330439208984375,1.2993771093346178,0.1209124445348978,0.7268126378148794
1684119882882409200,9.3404091796875,1.534920287786424,0.15519406884312628,0.6430202558845282
1684119882892379400,9.35037939453125,1.487254865770042,0.0013444003462791442,0.5211652698025107
1684119882902348300,9.360348388671875,1.1613025175966323,-0.2903670939207077,0.39337066453844305
1684119882912318200,9.370318115234374,0.8395438217207789,-0.42226212024092674,0.44843262654691934
1684119882922288400,9.380288330078125,0.6139492058314383,-0.33303017760515213,0.672978171774745
1684119882932258300,9.39025830078125,0.41111514167413116,-0.306185425299406,0.9809075181320309
1684119882942227500,9.4002275390625,0.14562427646517753,-0.43977965675294395,1.3631529775440692
1684119882952197400,9.410197265625,-0.20486805420294402,-0.557185554471612,1.738692801837623
1684119882962167300,9.420167236328124,-0.619390958493948,-0.5968219838112593,1.9386340671628712
1684119882972136200,9.43013623046875,-1.0476422361470759,-0.5111252295643091,1.8525556201219557
1684119882982106400,9.4401064453125,-1.4371370821654796,-0.324770298781991,1.4760335067927837
1684119882992076300,9.450076171875,-1.8231680514656006,0.023917466682195663,0.9019570232748985
1684119883002046000,9.4600458984375,-1.9760861382007597,0.3958271177798509,0.27944997858703136
1684119883012015900,9.470015869140624,-1.8531096007429062,0.4239753538995981,-0.23506810828596353
1684119883021986000,9.479986083984375,-1.6074856116510927,0.23040274682343004,-0.44083588780760763
1684119883031956000,9.4899560546875,-1.2610966246485709,-0.17857845156192778,-0.19483897375017403
1684119883041924900,9.4999248046875,-1.0546857249177992,-0.7575701796501875,0.4269681059747934
1684119883051894800,9.509894775390626,-1.0388879979357122,-1.4421177931874989,1.270857847945392
1684119883061865000,9.519864990234375,-1.1107871129766107,-2.28733703019619,2.2985312089055774
1684119883071833900,9.529833740234375,-0.8990217004753649,-3.2827813154637813,3.3984894693538545
1684119883081804000,9.539803955078124,0.09910948578864336,-4.295065091851353,4.6403255132153625
1684119883091774000,9.54977392578125,1.110060844528675,-5.268655857229232,5.9711892093122
1684119883101743900,9.559743896484376,0.23716931834891436,-6.074962302997708,7.328378894537686
1684119883111713000,9.569713134765625,-3.5802675937399266,-6.574291296306252,8.287875083589553
1684119883121683000,9.579682861328125,-6.934923182064295,-7.010771326991915,8.601867383247614
1684119883131652900,9.58965283203125,-6.988281847286224,-8.041873785617947,8.256181722208858
1684119883141621800,9.599621826171875,-2.7073820589095354,-9.899939693593979,7.32503367576301
1684119883151592000,9.609592041015626,0.4602586734190583,-11.633185043680667,6.241219617646932
1684119883161561900,9.619561767578125,-3.2439325293704866,-12.66225453517437,5.475695848643779
1684119883171532000,9.629531982421875,-3.816747906911373,-14.569301623940467,4.796654139046371
1684119883181501000,9.6395009765625,2.3236299943268297,-14.890211155641078,3.4697605156242846
1684119883191470800,9.649470947265625,14.925247397708892,-7.725326540780067,0.523908138769865
1684119883201440800,9.659440673828126,9.877900880265235,4.828675709468126,-2.1417419798254964
1684119883211410000,9.669409912109375,-6.078729546576738,11.04275831386447,-1.4547300220012664
1684119883221380000,9.679380126953125,-6.064053370970488,17.455350397217273,-3.6059225517392157
1684119883231350000,9.68935009765625,-2.1060642249837516,19.21890671441555,-6.491847406375408
1684119883241319000,9.69931884765625,-4.092075544871389,11.736766998708248,-9.07219064682424
1684119883251288800,9.709288818359376,-5.207740493017435,1.8734797502070664,-11.213287899005412
1684119883261258800,9.7192587890625,-0.388878029294312,-5.787315573951601,-13.402778302955626
1684119883271229000,9.72922900390625,4.575014252132177,-11.793090358954668,-15.730697518908977
1684119883281198000,9.739197998046874,1.72764855299294,-12.053000355291365,-15.405591120040416
1684119883291168000,9.74916796875,0.8336351821988821,-6.652707830417156,-12.008348728138207
1684119883301138000,9.759137939453124,3.8686715708941217,-3.465505196267366,-8.083291253155469
1684119883311106800,9.76910693359375,7.466925779962539,-3.019484014776349,-2.360541967138648
1684119883321077000,9.779076904296875,7.019955334922671,-2.594678055271506,3.7278234227895735
1684119883331047000,9.789046875,1.7436287969350814,-1.7817454693615435,5.915449201911687
1684119883341017000,9.79901708984375,1.1478390787810087,-0.505987282153964,1.2248685424476862
1684119883350986000,9.808986083984376,1.599928766530752,0.5149421575039624,-5.087599032855033
1684119883360956000,9.818955810546875,1.3487661402732134,1.3710714955836534,-9.511944584614039
1684119883370925800,9.82892578125,3.1206074707359073,2.752408949115872,-10.496792657065392
1684119883380895000,9.83889501953125,1.8844433350309728,3.359127473041415,-9.006927608796953
1684119883390865000,9.848864990234375,1.0222802697449922,3.263115661007166,-7.035788279348611
1684119883400835000,9.8588349609375,1.4402239422649143,3.0622943979769945,-5.063859260827303
1684119883410805000,9.868804931640625,0.6476479156851768,3.2411551736116406,-2.698951499694586
1684119883420774000,9.87877392578125,-1.2720964498296379,3.317983561748266,-0.7383528534829616
1684119883430743800,9.888743896484375,-1.8897692062288522,3.3873400065690276,0.715766927665472
1684119883440714000,9.8987138671875,-1.2367623938590286,3.6694372847944496,1.4710826063871383
1684119883450683000,9.908682861328124,-0.5174442034527659,3.482652145901322,2.1560224341124297
1684119883460652800,9.91865283203125,0.3529030450716614,2.689323839649558,2.9305484247386455
1684119883470623000,9.928623046875,-0.7154182603582739,1.519567528092861,2.9554981570780274
1684119883480593000,9.938593017578125,-1.3259452366560698,0.2243967844069004,1.86703890350461
1684119883490562000,9.94856201171875,-0.3003663637571037,-1.0763052899211645,-0.058896425604820245
1684119883500532000,9.958531982421874,1.4917700051069258,-2.335399342575669,-1.6788158407628535
1684119883510502000,9.968501953125,2.3216472960770127,-2.7384768698751927,-2.236629171743989
1684119883520470800,9.978470703125,2.0875683449588713,-2.5102777705758808,-2.9153613770008087
1684119883530440700,9.988440673828125,3.3784476750612256,-1.9187649990886448,-4.100188416439295
1684119883540411000,9.998410888671875,3.8693607222020625,-1.3923644589811563,-5.651354028844833
1684119883550381000,10.008381103515624,3.9452176349580284,-1.1426894409328698,-7.39392776376903
1684119883560350000,10.018349853515625,4.173160129147767,-0.6515373243391513,-9.48439431438744
1684119883570320000,10.02831982421875,4.028575132602453,0.1942716952562332,-11.83687689371109
1684119883580289800,10.038289794921875,3.572124034772813,1.4306079726576804,-13.702581918263435
1684119883590259000,10.048259033203125,3.103240740871429,2.8919349087059496,-15.200271961069106
1684119883600229000,10.05822900390625,3.2740318995580076,4.705547342449426,-15.873054318010807
1684119883610199000,10.068198974609375,3.9703950385734434,6.707068366158008,-15.51295025551915
1684119883620168000,10.07816796875,4.391558549922705,8.720029652291537,-14.25894154330492
1684119883630137900,10.088137939453125,4.253223261421919,10.774155307984351,-12.266131064796447
1684119883640107800,10.098107666015625,3.0779204216539857,12.768284467875956,-10.659949083089828
1684119883650077700,10.10807763671875,2.258814700067043,13.380027541965246,-9.708706343120335
1684119883660046800,10.118046875,1.5112053579390048,12.897606428837776,-9.231860399776696
1684119883670017000,10.12801708984375,-0.32107663189582525,11.60498303154707,-8.93425341773033
1684119883679987000,10.137987060546875,-3.5936826633691785,10.21072179903388,-8.971205722552538
1684119883689955800,10.147955810546875,-4.398577488774061,10.178006108868122,-9.129826258713006
1684119883699926000,10.157926025390625,-1.36663906609416,11.34451423228383,-9.14283596241176
1684119883709896000,10.16789599609375,0.7857190002918243,13.100794420999287,-6.201486157673597
1684119883719866000,10.1778662109375,1.2842811008810997,14.926248099184035,0.19006350297667085
1684119883729835000,10.1878349609375,-0.5277455249756574,12.533540476977825,6.637367637944221
1684119883739805000,10.197804931640626,-1.0461983209490775,5.334472437486053,12.016470075273514
1684119883749774800,10.20777490234375,3.269088305675983,0.4281085081815719,15.82338164782524
1684119883759744000,10.217743896484375,17.67277383548021,2.9177649310111997,20.136348891592025
1684119883769714000,10.2277138671875,9.239562644717097,2.3801532610595224,17.65511893632412
1684119883779683800,10.237683837890625,-12.551139262032509,-3.369454221266508,7.940659728765487
1684119883789654000,10.247654052734376,-9.421269457432627,-7.192915946602821,2.930888324217498
1684119883799623000,10.257622802734375,-1.0600538278222082,-10.00010570269823,0.9619818683877587
1684119883809593000,10.267593017578125,0.26242168689668177,-10.62993739118576,0.4355333974853158
1684119883819563000,10.27756298828125,-1.7039567117601633,-10.921132168102265,0.488252888020873
1684119883829532000,10.287531982421875,-2.7257465676397086,-11.149327175748347,0.42802163361571727
1684119883839501800,10.297501708984376,-3.6819203342705964,-11.026488731586932,0.6623555824082344
1684119883849471700,10.3074716796875,-3.853098738709092,-10.224608870089053,0.3766862909149378
1684119883859442000,10.31744189453125,-2.1055238344967364,-6.430965359911323,0.7019986606843769
1684119883869411000,10.3274111328125,-2.6371885787427423,-1.5790607505470513,2.3527789319217205
1684119883879381000,10.337381103515625,-1.2781260853827,3.3355215565264222,3.972236867047846
1684119883889351000,10.347350830078126,-1.1900702007889747,7.603388260328769,4.6196194097951055
1684119883899319800,10.35731982421875,-3.6669606655478475,8.460204411628842,4.092276620401442
1684119883909289700,10.367289794921875,-5.749356137913465,6.2302048871576785,3.3796099968388673
1684119883919260000,10.377260009765624,-5.522267045682669,4.031051167327165,2.9924168518915772
1684119883929230000,10.38722998046875,-2.732282399149239,1.8252157777756453,3.2008345614001152
1684119883939199000,10.397198974609376,-0.2511689098678529,-0.6726876643955707,3.913388079977035
1684119883949169000,10.4071689453125,-1.1037225814178586,-3.109320937567949,5.213301634275913
1684119883959138800,10.417138916015626,-3.4532018872722983,-5.69242838203311,7.254301850935816
1684119883969108000,10.42710791015625,-4.608664885060489,-8.612855225729941,9.45310251954496
1684119883979078000,10.437077880859375,-3.4642926056072114,-11.97912029556632,11.224908194172382
1684119883989048000,10.447048095703124,-0.8401230829134583,-16.96801111690998,12.73459730232954
1684119883999016700,10.4570166015625,-0.20323329260796308,-22.31581825226545,14.305069672751426
1684119884008986600,10.466986572265625,-2.9080501772046086,-27.207688961315153,15.675137544250488
1684119884018956500,10.47695654296875,-5.246236520150304,-32.587226282930374,17.179415148752927
1684119884028926700,10.4869267578125,-6.592841682997346,-35.19312774300575,18.430335247302054
1684119884038895600,10.4968955078125,-4.472617415235937,-33.737965174806114,18.354484179764984
1684119884048865500,10.506865478515625,-4.252937722478807,-28.139942923176285,15.645606329339742
1684119884058835700,10.516835693359376,-9.440151268035173,-22.70055289814472,9.745092246231437
1684119884068804900,10.526804931640624,-12.591209406614302,-20.14124484694004,5.940653785794973
1684119884078774800,10.53677490234375,-12.667104897814989,-18.84120971208811,6.3182712931454175
1684119884088744700,10.54674462890625,-11.310555848580599,-17.743192356574536,8.490193307179212
1684119884098714600,10.556714599609375,-8.620143044650554,-16.827264091092346,10.549458079326152
1684119884108683500,10.56668359375,-5.532135528746247,-16.323175920557976,11.08014784106016
1684119884118653700,10.57665380859375,-2.398637889038026,-16.866788292229174,10.333241094243526
1684119884128623600,10.58662353515625,-0.026058862625062466,-17.632219706773757,9.153596425879002
1684119884138592800,10.5965927734375,0.4992480370268225,-18.04900719499588,7.669920879900455
1684119884148562700,10.606562744140625,-1.4927800589323044,-17.118901935601233,5.71465833401978
1684119884158532600,10.61653271484375,-3.4198566670313477,-15.146430480766295,4.0519577617555855
1684119884168502500,10.62650244140625,-2.1342133378863335,-13.43512808241844,2.286004904809594
1684119884178471700,10.6364716796875,6.977675113075971,-12.675532534420489,-0.5306424154609442
1684119884188441900,10.64644189453125,13.100897296851873,-12.746677031701802,-3.467292664206028
1684119884198411800,10.656411865234375,-1.6407554285682737,-10.661122803044318,-3.191095549935102
1684119884208380700,10.666380615234376,-6.806494370549917,-7.202173604291677,-3.89044881067723
1684119884218350600,10.6763505859375,-5.613390501153469,-5.8981350790172815,-3.746504742383957
1684119884228320500,10.686320556640625,-4.237830461978912,-4.514603914833069,-3.4087972206175325
1684119884238290700,10.696290771484374,-1.0417653069376944,-2.967316020643711,-2.7921494233518835
1684119884248259800,10.706259765625,-0.7602654831487685,-2.3751450775086878,-0.06391454602777957
1684119884258229800,10.716229736328126,-3.355582347780466,-1.7329314618319271,4.522150092428922
1684119884268199700,10.72619970703125,-6.394725587272644,0.41135961795449255,8.065729877501726
1684119884278168600,10.73616845703125,-7.985095082819462,5.725327027550339,10.967865862226486
1684119884288138800,10.746138671875,-7.988537916749715,11.615707839179038,14.132152900213002
1684119884298108700,10.756108642578125,-4.998447754240035,15.632054773849248,17.510812172198296
1684119884308078800,10.766078857421874,1.4803811806082725,17.68139904048443,18.007777358984946
1684119884318047700,10.7760478515625,5.420051702833176,11.279960803830622,13.531403513824939
1684119884328017700,10.786017578125,2.6529402746260167,2.843410239511728,10.871646544921397
1684119884337987600,10.795987548828125,1.4542575821839272,-2.114967370146513,10.048431634449958
1684119884347956700,10.805956787109375,0.6850880040243268,-1.759797256925702,10.213941345602274
1684119884357926700,10.8159267578125,-5.918776300507783,8.940397911834717,12.703368635851144
1684119884367896600,10.825896484375,-3.551810730062425,24.514728810989855,13.092539802873134
1684119884377865700,10.83586572265625,2.2204922759354115,39.45078051130771,9.349791198152303
1684119884387835600,10.845835693359374,2.631249544082582,46.5284708268404,1.4313497309356926
1684119884397805600,10.8558056640625,3.178388044053316,35.98233049376011,-4.614215212664008
1684119884407775700,10.865775634765624,-0.9772691616296768,23.664046047878266,-16.85583201392889
1684119884417744600,10.87574462890625,-7.738906153321266,15.965955889070033,-29.32831801048517
1684119884427714600,10.885714599609376,1.1392224954746664,9.22943054228127,-22.59673245818615
1684119884437684700,10.895684814453125,7.223287703990936,6.060658467835188,-11.581069071996211
1684119884447654000,10.90565380859375,5.4738019977211945,-0.2900567127972841,-7.97605252918601
1684119884457623800,10.915623779296874,1.3948457544028758,-6.176971309620142,-6.2105076685190195
1684119884467593700,10.92559375,-0.8562545718945562,-7.7247578009814015,-5.298201100665331
1684119884477563600,10.935563720703126,1.7139949984326959,-5.317943327489495,-4.833277065783739
1684119884487532500,10.945532470703125,4.121587470559776,-3.8206601119190453,-5.440208355677128
1684119884497502500,10.95550244140625,3.968348335176706,-3.074566435050964,-7.963297092509269
1684119884507472600,10.96547265625,2.639578396488726,-0.6555506516337394,-11.08374849590063
1684119884517441800,10.97544189453125,1.7724106547832488,1.7963874504372477,-11.926434999561309
1684119884527411700,10.98541162109375,-0.08542933548241853,2.3228768378719686,-11.117089624488353
1684119884537381600,10.995381591796875,0.5745069838896394,0.3740145144224167,-9.21383900539577
1684119884547351600,11.0053515625,0.6156362821355462,-3.277869578024745,-5.627032073014974
1684119884557320700,11.01532080078125,-0.6245759599164128,-5.971430616852641,-0.38355274261832234
1684119884567291000,11.025290771484375,-1.9867969173073767,-7.045904599693417,3.8603503172725437
1684119884577260800,11.0352607421875,-0.7329393040016293,-7.196233692848682,3.67406202198565
1684119884587229700,11.045229736328125,0.3899798530563712,-4.2907822999656196,-1.8614461980640886
1684119884597199600,11.05519970703125,-0.4605126481801271,0.2955097175061703,-7.326743986812233
1684119884607169500,11.06516943359375,-0.6254200095251202,2.832550991845131,-8.749356284540891
1684119884617139500,11.075139404296875,0.49146980424076314,3.3383225854218006,-7.23944914971888
1684119884627108600,11.085108642578126,1.206345628285408,1.780026975005865,-5.375782937517762
1684119884637078800,11.095078857421875,1.3306541449993847,0.30149697522222996,-3.2893811521202325
1684119884647048700,11.105048583984376,2.404001754158735,-0.09176935215890407,-1.6818816580742597
1684119884657017600,11.115017578125,2.420280104264617,-0.7325438749432563,-1.398167007780075
1684119884666987800,11.12498779296875,1.995028739079833,-0.8457558281034231,-2.722539296030998
1684119884676957700,11.134957763671874,0.0909554054275155,-0.42102351835668084,-3.310671192908287
1684119884686927600,11.144927734375,-0.605938479463756,0.6741057144999504,-3.010437954011559
1684119884696896800,11.154896728515626,0.18926351170539854,1.34355045145154,-3.451103745949268
1684119884706866700,11.16486669921875,0.4308364718407392,1.6757248890101908,-3.1309096690416336
1684119884716836600,11.174836669921875,0.453285911796987,1.971393596470356,-2.4103701201468706
1684119884726805800,11.1848056640625,0.43994010801166294,2.3430337829768657,-1.842965369477868
1684119884736775700,11.194775634765625,0.525321804960072,2.4310341379910705,-1.4084551775604486
1684119884746745600,11.20474560546875,0.4397331872627139,2.1164345200896264,-1.2255208688765764
1684119884756715800,11.2147158203125,0.4961988785892725,1.7268068414717912,-1.0375742849886416
1684119884766684700,11.2246845703125,0.39839579922407864,1.3959732971280812,-0.9926718979448079
1684119884776654800,11.23465478515625,-0.32406331955641504,1.2286375395923852,-1.2390016972184181
1684119884786624800,11.244624755859375,-0.6673387045830488,1.1109148310095072,-1.2821703923374415
1684119884796593700,11.25459375,-0.5803887354046106,0.9078332218319177,-1.2062146953821182
1684119884806563600,11.2645634765625,-0.6059567457728088,0.7415536953508853,-0.9823363818913697
1684119884816533500,11.274533447265625,-0.4937652217015624,0.6329407604187727,-0.7060165180236101
1684119884826503700,11.284503662109374,-0.4367369280561805,0.3529606204777956,-0.40555180845856664
1684119884836472800,11.294472900390625,-0.40897330733984705,0.033767245045304296,0.0061895022898912425
1684119884846442800,11.30444287109375,-0.2119663419008255,-0.22503858944177627,0.5814905591666698
1684119884856412700,11.31441259765625,-0.13247399525195358,-0.4957715930879116,1.1298954258114098
1684119884866381600,11.324381591796875,-0.12785685684531925,-0.5105161577552557,1.4340443768471478
1684119884876351500,11.3343515625,-0.02272065811306238,-0.6234411106675863,1.4816180289268492
1684119884886321700,11.34432177734375,0.05725611105188727,-0.9051777388870715,1.3560481139749287
1684119884896290800,11.354290771484376,-0.034456834744662046,-1.119557571670413,1.1603098532974718
1684119884906260700,11.3642607421875,-0.07102890807762742,-1.3605033398181199,0.903666165280342
1684119884916230700,11.374230712890625,-0.08829831504747271,-1.625190633559227,0.5905944875985384
1684119884926200600,11.38420068359375,-0.4079271592877805,-2.1053408791452646,0.3903834654211998
1684119884936169700,11.394169677734375,-0.22390110984444617,-2.6933102789372203,0.16474164938926697
1684119884946139600,11.4041396484375,0.027374475268274544,-3.2516578629255295,0.12427987514138221
1684119884956109800,11.41410986328125,-0.010458265650272369,-3.8930607467412948,0.11518471453785896
1684119884966078700,11.42407861328125,0.014173340650647877,-4.381110805666446,0.10698241112083196
1684119884976048600,11.434048583984374,-0.4489597191609442,-4.822451720386743,-0.19292671038806436
1684119884986018600,11.4440185546875,-1.04372257848531,-5.214935957479477,-0.583418604619801
1684119884995988500,11.453988525390624,-1.124043631043285,-5.486494306033849,-0.8345596035674214
1684119885005961700,11.463961669921876,-0.9409842346750199,-5.808463575920462,-0.47636108243614433
1684119885015931600,11.473931640625,-0.47837841360792516,-6.180532801494002,0.0395946360245347
1684119885025901800,11.48390185546875,0.0704360567510128,-6.084071492126584,0.47164662113487715
1684119885035870700,11.49387060546875,0.45057628751210865,-5.340469632074236,1.0789087504178285
1684119885045840600,11.503840576171875,0.7039687917135655,-3.415674705171585,1.3020505663275719
1684119885055810800,11.513810791015626,1.3839549425542355,-0.30244506972730156,1.3131556054487823
1684119885065780700,11.52378076171875,2.1386710479475557,2.8883704942226407,0.9614566754698752
1684119885075749600,11.53374951171875,2.4691455497205257,5.3435266815572975,0.4817380992993712
1684119885085719600,11.543719482421874,2.4214767667032775,6.38177024410963,0.1913128454506397
1684119885095689700,11.553689697265625,2.165259779665619,5.2578901330649845,0.22159020255357026
1684119885105659000,11.563658935546876,1.8356020011030136,2.0961673926085234,0.6469345067188144
1684119885115628800,11.57362890625,1.4640145676970482,-1.0605904189169406,1.2321505161494015
1684119885125598700,11.5835986328125,1.3201147769369184,-3.0278613824993372,1.9773606881812213
1684119885135568600,11.593568603515624,1.046441482055187,-3.982741017666459,2.666365573388338
1684119885145537500,11.60353759765625,0.34402971052527426,-4.23020654297173,3.0250159299403427
1684119885155507500,11.613507568359376,-0.6851648686528206,-3.8514281751483677,2.883046084329486
1684119885165477600,11.6234775390625,-1.7570096720337867,-3.007989976337552,2.2124849105685946
1684119885175446800,11.63344677734375,-2.562553316736221,-1.8922656992197036,0.9797232767835259
1684119885185416700,11.643416748046874,-3.2931951574504374,-0.7458598681122064,-0.2808086997196078
1684119885195386600,11.65338671875,-3.612577917975187,0.26973814738988877,-1.4486185533836482
1684119885205356500,11.6633564453125,-3.0388451333284374,1.2417518727093935,-2.3796125783115625
1684119885215325700,11.67332568359375,-1.9477334655500946,2.089371741119027,-2.9255779428496953
1684119885225296000,11.6832958984375,-0.9431647205192595,2.5635861669152975,-2.992529372355342
1684119885235265800,11.693265869140625,-0.28711956336684524,2.475752400639653,-2.6439354226544496
1684119885245234700,11.703234619140625,-0.2689150675039738,1.8052391576737163,-1.8641896515533327
1684119885255204600,11.71320458984375,-1.026025228426978,0.8614204302251338,-0.8585460438326
1684119885265174500,11.723174560546875,-1.8609622139394282,0.011268412989377976,0.07620791815072298
1684119885275143700,11.733143798828126,-2.0648528014123437,-0.4595283133178949,0.8353875788241625
1684119885285113600,11.743113525390624,-1.7599977479338644,-0.3845271406084299,1.570583429580927
1684119885295083800,11.753083740234375,-1.1805904247820376,0.21343115375638008,2.3358026626795527
1684119885305053700,11.7630537109375,-0.656472004262358,1.095235615840554,3.021419951274991
1684119885315022600,11.773022705078125,-0.0984873353023082,2.084039732441306,3.560357609133422
1684119885324992800,11.78299267578125,0.09848024797439575,2.8013983132123945,3.6091625565737484
1684119885334962700,11.792962646484375,-0.2225579516071826,2.6501170338988302,2.6227117251008747
1684119885344931600,11.802931640625,-0.6070271514832973,1.6517057155191897,1.0094622892260552
1684119885354901800,11.81290185546875,-0.9344131857216358,0.4576087434321642,-0.3679728961706161
1684119885364871700,11.82287158203125,-1.2604033816874027,-0.6497416730940342,-1.3784791414916515
1684119885374841600,11.832841552734376,-1.4652069923520088,-1.603727574291825,-2.2034832734674215
1684119885384810800,11.842810791015625,-1.2999486256122588,-2.1895704834491014,-2.78183348878175
1684119885394780700,11.85278076171875,-0.6852292391259223,-2.2011282347738743,-2.720762641747296
1684119885404750600,11.86275048828125,-0.33912323378324505,-1.7898399284899233,-1.8031933310598134
1684119885414719500,11.872719482421875,-0.628738705619052,-1.54681735406816,-0.611306143976748
1684119885424689700,11.882689697265626,-0.8011117997348308,-1.617857221931219,0.24471271946579218
1684119885434659800,11.892659912109375,-0.5496820469737053,-1.736907964247465,0.9748112470835447
1684119885444629800,11.902629638671876,-0.0053858577568084,-1.5753957982987163,1.784051700477302
1684119885454598700,11.9125986328125,0.5234066189885139,-1.0446312177628279,2.4405612602710725
1684119885464568600,11.922568603515625,0.9499893789075314,-0.25777766048312184,2.811972314196825
1684119885474538500,11.93253857421875,1.2457004642046987,0.725901368188858,2.7886659651502965
1684119885484508700,11.9425087890625,1.3517362421251833,1.7468997814297675,2.8156752603679895
1684119885494477800,11.952477783203125,1.3551660704433917,2.390899111479521,3.030481794130802
1684119885504447700,11.96244775390625,1.1686029037378727,2.1740964354634285,2.9974887483283874
1684119885514417700,11.972417724609375,0.9830055133245885,1.1637602860122918,2.500959614871442
1684119885524386600,11.982386474609376,1.006402755524963,0.10224690703153609,1.9411179929330944
1684119885534356500,11.9923564453125,1.0934626878838984,-0.58855859785676,1.4181550260588527
1684119885544326700,12.00232666015625,1.143600637493655,-0.8841244294643401,0.9134279730990529
1684119885554296800,12.012296875,1.01184706547074,-0.6151677878409624,0.6518330924153327
1684119885564265700,12.022265625,0.7208605244774371,0.14060031082332133,0.9181681533634662
1684119885574235600,12.032235595703124,0.36376908780522643,0.6969780560433865,1.374131175415218
1684119885584205600,12.04220556640625,0.004964928930997848,0.8152274188488722,1.4447086864635348
1684119885594174700,12.0521748046875,0.008953633240982889,0.5673188259512185,0.9768032976835965
1684119885604144600,12.06214453125,0.38589660233072937,0.258202607896924,0.28501959541290994
1684119885614114800,12.07211474609375,0.8879402614254504,0.06916939781606198,-0.32004151669442654
1684119885624084700,12.082084716796874,1.2528724016606807,-0.04173953909873962,-0.7536623585566878
1684119885634053600,12.0920537109375,1.2683739221751689,-0.07223404608368873,-0.8520584353789686
1684119885644023600,12.1020234375,1.0622785181343555,0.06250058757662773,-0.4458148452639579
1684119885653993700,12.11199365234375,0.8938098110459745,0.27652210844159125,0.2058306156247854
1684119885663962600,12.121962646484375,0.8934615090649575,0.3957593132406473,0.6700090928360819
1684119885673932800,12.131932861328124,0.9200140004258602,0.41096798828840253,0.9797358440041541
1684119885683902700,12.14190283203125,0.9050420567434281,0.3652735740840435,1.1595287859223782
1684119885693872600,12.15187255859375,0.89143562926054,0.1953951463282108,1.183428278556466
1684119885703841800,12.161841796875,0.9018857116043567,-0.025395138019323346,1.0179776041150093
1684119885713811700,12.171811767578125,1.0297580582797528,-0.18907646470069883,0.7024559029325842
1684119885723781600,12.18178173828125,1.163417171663046,-0.3466962993860245,0.39049335553646086
1684119885733751800,12.191751708984375,1.182210719460249,-0.5776701240956783,0.13307780636399982
1684119885743720700,12.201720703125,1.192272825399786,-0.7433978619128465,-0.12768471514880655
1684119885753690600,12.211690673828125,1.3039771504759787,-0.6882464680552483,-0.5819381568036973
1684119885763660500,12.22166064453125,1.3244212419591843,-0.3750450265139341,-1.3591963488727807
1684119885773629700,12.231629638671874,1.0628607019364833,0.015378770917654036,-2.3206842962637544
1684119885783599600,12.241599609375,0.4219218554358929,0.1851478930801153,-3.247412480440736
1684119885793569500,12.251569580078124,-0.22093736466802655,0.03403554059267044,-3.9247932710885998
1684119885803539700,12.261539794921875,-0.28210195440053937,-0.3040776393651962,-4.0941634570613505
1684119885813508900,12.2715087890625,0.22743841712512075,-0.634993601295352,-3.695352062773704
1684119885823478800,12.281478759765625,0.7697391947411,-0.9150117351591587,-3.113551122483611
1684119885833448700,12.29144873046875,1.139513514310494,-1.1854840420424937,-2.6375854691058396
1684119885843417600,12.30141748046875,1.0699345858454703,-1.542865401571989,-2.216117421852052
1684119885853387500,12.311387451171875,0.46500002272725105,-1.9473563028007745,-1.6007354067385196
1684119885863357700,12.321357666015626,-0.22379947610087692,-2.2033885809212923,-0.7678906442649662
1684119885873327600,12.33132763671875,-0.5524083301324397,-2.197545700111985,0.21974238272979854
1684119885883296800,12.341296875,-0.5775836879212409,-1.9067659337371587,1.288723174981773
1684119885893266700,12.3512666015625,-0.29113281759619714,-1.2967653194010258,2.2783380234435198
1684119885903236600,12.361236572265625,0.35395956838726994,-0.5923784484058618,3.0255142348513004
1684119885913205500,12.37120556640625,1.1166613387722522,-0.1315957511126995,3.4982951207131143
1684119885923175700,12.38117578125,2.0365923370897767,0.016630232283473014,3.8261283141970632
1684119885933145900,12.391145751953125,2.9522786105096337,-0.020911855125427245,4.227711219024658
1684119885943115800,12.40111572265625,2.8215187256991863,-0.15325579425692556,4.072833961045742
1684119885953084700,12.411084716796875,2.424054362106323,-0.14284019870460032,3.502378590634465
1684119885963054600,12.4210546875,2.3486498692929745,0.09411153137087822,2.5084847496792673
1684119885973024500,12.4310244140625,1.8366881889045237,0.2974760491430759,1.5201806915551423
1684119885982994400,12.440994384765625,0.4252560413599014,0.3165653650164604,0.6251145968377589
1684119885992963800,12.4509638671875,-0.867555498914048,0.19475801746845245,-0.047246465951949354
1684119886002929700,12.4609296875,-1.2942062825679779,0.1573901175826788,-0.33905294502601024
1684119886012899800,12.47089990234375,-1.037829136532545,0.41354631434381006,-0.20919000905528665
1684119886022869000,12.480868896484376,-0.352001456589438,1.1006646551519632,0.41984497609660026
1684119886032839000,12.4908388671875,0.10035539419651031,1.7471026105254888,1.1671332695767282
1684119886042808800,12.500808837890625,-0.09652096713278442,1.7909435058176517,1.5134370625138283
1684119886052778800,12.51077880859375,-0.2017746547648683,1.6149270136982201,1.7106578168340025
1684119886062747600,12.52074755859375,0.4170575373351574,1.6181792934924364,1.3014204517304897
1684119886072717800,12.5307177734375,0.8140800023794174,1.4919494533270596,0.6694368459060788
1684119886082687700,12.540687744140625,0.5209586413145065,0.9537596912264823,0.2688943900421262
1684119886092658000,12.550657958984376,0.20971008740663527,0.3704407475888729,0.34933512345701456
1684119886102626800,12.560626708984374,0.11381108809709549,0.12101122873425484,0.9572151654426008
1684119886112596700,12.5705966796875,0.3896861308068037,0.31820144178569315,1.8381845649421213
1684119886122566700,12.580566650390624,1.1176099447339773,0.9705518360733986,2.5204969667732713
1684119886132535800,12.590535888671875,1.8563573504924773,1.646224069237709,2.891094658489525
1684119886142506000,12.600506103515626,1.6222358754068613,1.7589128753066061,1.8999166523642836
